,Accuracy,ChoseViolation,Item,Permutation,ReactionTime,Segment,Subject,TestedOn,TrainedOn,TrialNumber,Violates,ViolationPosition
482,0.75,1,343,1,5181,b,A102V40REYFUHV,*DF,PlaceAssimilation,69,Voicing,0
486,0.75,0,286,1,4440,d,A102V40REYFUHV,*DF,PlaceAssimilation,73,Voicing,1
487,0.75,1,352,1,3048,n,A102V40REYFUHV,*NF,PlaceAssimilation,74,Place,0
488,0.75,1,304,1,6314,d,A102V40REYFUHV,*DF,PlaceAssimilation,75,Voicing,1
489,0.75,1,355,1,3697,ng,A102V40REYFUHV,*NF,PlaceAssimilation,76,Place,0
490,0.75,0,337,1,6609,b,A102V40REYFUHV,*DF,PlaceAssimilation,77,Voicing,0
491,0.75,0,382,1,5713,n,A102V40REYFUHV,*NF,PlaceAssimilation,78,Place,1
492,0.75,0,295,1,2945,d,A102V40REYFUHV,*DF,PlaceAssimilation,79,Voicing,1
493,0.75,1,346,1,4233,n,A102V40REYFUHV,*NF,PlaceAssimilation,80,Place,1
494,0.75,1,325,1,7320,b,A102V40REYFUHV,*DF,PlaceAssimilation,81,Voicing,1
495,0.75,0,370,1,3881,n,A102V40REYFUHV,*NF,PlaceAssimilation,82,Place,0
496,0.75,1,313,1,5208,d,A102V40REYFUHV,*DF,PlaceAssimilation,83,Voicing,0
497,0.75,1,349,1,5712,ng,A102V40REYFUHV,*NF,PlaceAssimilation,84,Place,1
498,0.75,1,334,1,2897,b,A102V40REYFUHV,*DF,PlaceAssimilation,85,Voicing,1
499,0.75,1,391,1,2929,ng,A102V40REYFUHV,*NF,PlaceAssimilation,86,Place,0
500,0.75,0,331,1,3360,b,A102V40REYFUHV,*DF,PlaceAssimilation,87,Voicing,1
501,0.75,0,358,1,3688,n,A102V40REYFUHV,*NF,PlaceAssimilation,88,Place,1
503,0.75,1,397,1,2929,ng,A102V40REYFUHV,*NF,PlaceAssimilation,90,Place,0
504,0.75,1,319,1,4769,b,A102V40REYFUHV,*DF,PlaceAssimilation,91,Voicing,1
505,0.75,1,385,1,4201,ng,A102V40REYFUHV,*NF,PlaceAssimilation,92,Place,1
506,0.75,1,322,1,8306,b,A102V40REYFUHV,*DF,PlaceAssimilation,93,Voicing,1
507,0.75,1,400,1,3457,n,A102V40REYFUHV,*NF,PlaceAssimilation,94,Place,0
508,0.75,1,289,1,3505,d,A102V40REYFUHV,*DF,PlaceAssimilation,95,Voicing,0
510,0.75,0,328,1,3585,b,A102V40REYFUHV,*DF,PlaceAssimilation,97,Voicing,1
511,0.75,1,379,1,3921,ng,A102V40REYFUHV,*NF,PlaceAssimilation,98,Place,1
512,0.75,0,307,1,3873,d,A102V40REYFUHV,*DF,PlaceAssimilation,99,Voicing,0
513,0.75,1,403,1,3066,ng,A102V40REYFUHV,*NF,PlaceAssimilation,100,Place,0
515,0.75,1,367,1,4112,ng,A102V40REYFUHV,*NF,PlaceAssimilation,102,Place,1
517,0.75,1,376,1,2441,n,A102V40REYFUHV,*NF,PlaceAssimilation,104,Place,0
518,0.75,0,310,1,2514,d,A102V40REYFUHV,*DF,PlaceAssimilation,105,Voicing,1
520,0.75,0,340,1,3393,b,A102V40REYFUHV,*DF,PlaceAssimilation,107,Voicing,0
521,0.75,1,364,1,3793,n,A102V40REYFUHV,*NF,PlaceAssimilation,108,Place,0
522,0.75,1,301,1,2409,d,A102V40REYFUHV,*DF,PlaceAssimilation,109,Voicing,1
523,0.75,0,394,1,8681,n,A102V40REYFUHV,*NF,PlaceAssimilation,110,Place,1
524,0.75,0,298,1,2513,d,A102V40REYFUHV,*DF,PlaceAssimilation,111,Voicing,1
527,0.75,1,373,1,4425,ng,A102V40REYFUHV,*NF,PlaceAssimilation,114,Place,0
528,0.75,0,292,1,4385,d,A102V40REYFUHV,*DF,PlaceAssimilation,115,Voicing,1
529,0.75,1,388,1,2481,n,A102V40REYFUHV,*NF,PlaceAssimilation,116,Place,1
530,0.75,1,316,1,7370,b,A102V40REYFUHV,*DF,PlaceAssimilation,117,Voicing,1
531,0.75,1,361,1,3233,ng,A102V40REYFUHV,*NF,PlaceAssimilation,118,Place,1
609,0.5,1,361,0,7337,ng,A10PDD2KU7GRST,*NF,Devoicing,69,Place,1
610,0.5,1,301,0,2505,d,A10PDD2KU7GRST,*DF,Devoicing,70,Voicing,1
611,0.5,0,376,0,1455,n,A10PDD2KU7GRST,*NF,Devoicing,71,Place,1
612,0.5,1,310,0,1587,d,A10PDD2KU7GRST,*DF,Devoicing,72,Voicing,1
613,0.5,0,388,0,5021,n,A10PDD2KU7GRST,*NF,Devoicing,73,Place,1
615,0.5,1,397,0,2899,ng,A10PDD2KU7GRST,*NF,Devoicing,75,Place,0
616,0.5,0,292,0,3676,d,A10PDD2KU7GRST,*DF,Devoicing,76,Voicing,1
617,0.5,1,382,0,4022,n,A10PDD2KU7GRST,*NF,Devoicing,77,Place,0
618,0.5,1,325,0,5017,b,A10PDD2KU7GRST,*DF,Devoicing,78,Voicing,0
619,0.5,1,379,0,2609,ng,A10PDD2KU7GRST,*NF,Devoicing,79,Place,0
620,0.5,0,295,0,4190,d,A10PDD2KU7GRST,*DF,Devoicing,80,Voicing,1
621,0.5,1,373,0,4401,ng,A10PDD2KU7GRST,*NF,Devoicing,81,Place,0
622,0.5,0,328,0,2680,b,A10PDD2KU7GRST,*DF,Devoicing,82,Voicing,0
623,0.5,0,403,0,6136,ng,A10PDD2KU7GRST,*NF,Devoicing,83,Place,0
624,0.5,1,313,0,4205,d,A10PDD2KU7GRST,*DF,Devoicing,84,Voicing,0
626,0.5,1,289,0,4415,d,A10PDD2KU7GRST,*DF,Devoicing,86,Voicing,1
627,0.5,1,370,0,3439,n,A10PDD2KU7GRST,*NF,Devoicing,87,Place,0
629,0.5,1,355,0,7661,ng,A10PDD2KU7GRST,*NF,Devoicing,89,Place,1
630,0.5,0,334,0,5549,b,A10PDD2KU7GRST,*DF,Devoicing,90,Voicing,1
631,0.5,1,358,0,3298,n,A10PDD2KU7GRST,*NF,Devoicing,91,Place,1
632,0.5,0,298,0,3796,d,A10PDD2KU7GRST,*DF,Devoicing,92,Voicing,1
634,0.5,0,286,0,3920,d,A10PDD2KU7GRST,*DF,Devoicing,94,Voicing,0
636,0.5,0,331,0,4098,b,A10PDD2KU7GRST,*DF,Devoicing,96,Voicing,0
639,0.5,1,385,0,3633,ng,A10PDD2KU7GRST,*NF,Devoicing,99,Place,0
640,0.5,0,343,0,4819,b,A10PDD2KU7GRST,*DF,Devoicing,100,Voicing,0
641,0.5,1,346,0,2006,n,A10PDD2KU7GRST,*NF,Devoicing,101,Place,1
642,0.5,0,304,0,2023,d,A10PDD2KU7GRST,*DF,Devoicing,102,Voicing,1
643,0.5,1,364,0,2166,n,A10PDD2KU7GRST,*NF,Devoicing,103,Place,1
644,0.5,0,307,0,3318,d,A10PDD2KU7GRST,*DF,Devoicing,104,Voicing,1
645,0.5,1,349,0,2927,ng,A10PDD2KU7GRST,*NF,Devoicing,105,Place,0
646,0.5,0,316,0,3388,b,A10PDD2KU7GRST,*DF,Devoicing,106,Voicing,1
647,0.5,1,394,0,3517,n,A10PDD2KU7GRST,*NF,Devoicing,107,Place,1
648,0.5,0,337,0,2608,b,A10PDD2KU7GRST,*DF,Devoicing,108,Voicing,0
649,0.5,1,352,0,2533,n,A10PDD2KU7GRST,*NF,Devoicing,109,Place,1
650,0.5,0,319,0,2950,b,A10PDD2KU7GRST,*DF,Devoicing,110,Voicing,0
653,0.5,1,367,0,2640,ng,A10PDD2KU7GRST,*NF,Devoicing,113,Place,1
654,0.5,0,322,0,4041,b,A10PDD2KU7GRST,*DF,Devoicing,114,Voicing,0
655,0.5,1,400,0,3430,n,A10PDD2KU7GRST,*NF,Devoicing,115,Place,1
656,0.5,0,340,0,2745,b,A10PDD2KU7GRST,*DF,Devoicing,116,Voicing,0
657,0.5,1,391,0,3053,ng,A10PDD2KU7GRST,*NF,Devoicing,117,Place,1
736,1.0,0,403,1,13489,ng,A10TU9I6GUEENN,*NF,PlaceAssimilation,69,Place,0
738,1.0,1,364,1,7005,n,A10TU9I6GUEENN,*NF,PlaceAssimilation,71,Place,1
739,1.0,1,343,1,4125,b,A10TU9I6GUEENN,*DF,PlaceAssimilation,72,Voicing,0
741,1.0,0,313,1,7771,d,A10TU9I6GUEENN,*DF,PlaceAssimilation,74,Voicing,1
743,1.0,1,286,1,4403,d,A10TU9I6GUEENN,*DF,PlaceAssimilation,76,Voicing,0
745,1.0,1,331,1,3726,b,A10TU9I6GUEENN,*DF,PlaceAssimilation,78,Voicing,1
746,1.0,0,382,1,3624,n,A10TU9I6GUEENN,*NF,PlaceAssimilation,79,Place,0
747,1.0,1,295,1,3338,d,A10TU9I6GUEENN,*DF,PlaceAssimilation,80,Voicing,0
748,1.0,0,370,1,7505,n,A10TU9I6GUEENN,*NF,PlaceAssimilation,81,Place,1
750,1.0,0,391,1,4869,ng,A10TU9I6GUEENN,*NF,PlaceAssimilation,83,Place,1
751,1.0,1,334,1,3920,b,A10TU9I6GUEENN,*DF,PlaceAssimilation,84,Voicing,0
753,1.0,0,301,1,3444,d,A10TU9I6GUEENN,*DF,PlaceAssimilation,86,Voicing,0
754,1.0,0,358,1,3865,n,A10TU9I6GUEENN,*NF,PlaceAssimilation,87,Place,0
755,1.0,1,292,1,4225,d,A10TU9I6GUEENN,*DF,PlaceAssimilation,88,Voicing,1
757,1.0,1,307,1,4114,d,A10TU9I6GUEENN,*DF,PlaceAssimilation,90,Voicing,1
758,1.0,1,361,1,6063,ng,A10TU9I6GUEENN,*NF,PlaceAssimilation,91,Place,0
760,1.0,1,355,1,7762,ng,A10TU9I6GUEENN,*NF,PlaceAssimilation,93,Place,0
762,1.0,1,346,1,3523,n,A10TU9I6GUEENN,*NF,PlaceAssimilation,95,Place,1
763,1.0,1,304,1,5644,d,A10TU9I6GUEENN,*DF,PlaceAssimilation,96,Voicing,1
764,1.0,0,400,1,4529,n,A10TU9I6GUEENN,*NF,PlaceAssimilation,97,Place,1
765,1.0,1,325,1,4429,b,A10TU9I6GUEENN,*DF,PlaceAssimilation,98,Voicing,1
766,1.0,1,388,1,5159,n,A10TU9I6GUEENN,*NF,PlaceAssimilation,99,Place,1
767,1.0,1,316,1,4222,b,A10TU9I6GUEENN,*DF,PlaceAssimilation,100,Voicing,0
768,1.0,1,379,1,3507,ng,A10TU9I6GUEENN,*NF,PlaceAssimilation,101,Place,0
769,1.0,1,319,1,5413,b,A10TU9I6GUEENN,*DF,PlaceAssimilation,102,Voicing,1
770,1.0,1,385,1,3224,ng,A10TU9I6GUEENN,*NF,PlaceAssimilation,103,Place,0
771,1.0,1,337,1,4222,b,A10TU9I6GUEENN,*DF,PlaceAssimilation,104,Voicing,0
772,1.0,1,397,1,9430,ng,A10TU9I6GUEENN,*NF,PlaceAssimilation,105,Place,1
773,1.0,1,289,1,3490,d,A10TU9I6GUEENN,*DF,PlaceAssimilation,106,Voicing,0
774,1.0,1,376,1,7381,n,A10TU9I6GUEENN,*NF,PlaceAssimilation,107,Place,0
775,1.0,1,340,1,5763,b,A10TU9I6GUEENN,*DF,PlaceAssimilation,108,Voicing,1
776,1.0,1,367,1,5838,ng,A10TU9I6GUEENN,*NF,PlaceAssimilation,109,Place,1
777,1.0,1,322,1,3548,b,A10TU9I6GUEENN,*DF,PlaceAssimilation,110,Voicing,0
778,1.0,1,394,1,3109,n,A10TU9I6GUEENN,*NF,PlaceAssimilation,111,Place,1
779,1.0,1,310,1,3712,d,A10TU9I6GUEENN,*DF,PlaceAssimilation,112,Voicing,1
780,1.0,1,373,1,3742,ng,A10TU9I6GUEENN,*NF,PlaceAssimilation,113,Place,1
781,1.0,1,328,1,3962,b,A10TU9I6GUEENN,*DF,PlaceAssimilation,114,Voicing,1
782,1.0,1,352,1,4453,n,A10TU9I6GUEENN,*NF,PlaceAssimilation,115,Place,1
783,1.0,1,298,1,5178,d,A10TU9I6GUEENN,*DF,PlaceAssimilation,116,Voicing,1
784,1.0,1,349,1,3957,ng,A10TU9I6GUEENN,*NF,PlaceAssimilation,117,Place,0
863,0.5,1,403,1,10908,ng,A115A6OQBJFVVS,*NF,PlaceAssimilation,69,Place,0
866,0.5,1,325,1,4726,b,A115A6OQBJFVVS,*DF,PlaceAssimilation,72,Voicing,0
867,0.5,1,391,1,2651,ng,A115A6OQBJFVVS,*NF,PlaceAssimilation,73,Place,1
868,0.5,1,301,1,3919,d,A115A6OQBJFVVS,*DF,PlaceAssimilation,74,Voicing,0
869,0.5,1,352,1,3898,n,A115A6OQBJFVVS,*NF,PlaceAssimilation,75,Place,0
870,0.5,0,337,1,5190,b,A115A6OQBJFVVS,*DF,PlaceAssimilation,76,Voicing,1
871,0.5,1,385,1,2859,ng,A115A6OQBJFVVS,*NF,PlaceAssimilation,77,Place,0
872,0.5,1,307,1,2564,d,A115A6OQBJFVVS,*DF,PlaceAssimilation,78,Voicing,0
873,0.5,1,358,1,3097,n,A115A6OQBJFVVS,*NF,PlaceAssimilation,79,Place,0
874,0.5,0,340,1,4253,b,A115A6OQBJFVVS,*DF,PlaceAssimilation,80,Voicing,0
875,0.5,1,364,1,2118,n,A115A6OQBJFVVS,*NF,PlaceAssimilation,81,Place,1
876,0.5,0,292,1,2128,d,A115A6OQBJFVVS,*DF,PlaceAssimilation,82,Voicing,0
877,0.5,0,355,1,2325,ng,A115A6OQBJFVVS,*NF,PlaceAssimilation,83,Place,0
879,0.5,1,367,1,1771,ng,A115A6OQBJFVVS,*NF,PlaceAssimilation,85,Place,0
880,0.5,1,331,1,2224,b,A115A6OQBJFVVS,*DF,PlaceAssimilation,86,Voicing,0
881,0.5,1,379,1,2668,ng,A115A6OQBJFVVS,*NF,PlaceAssimilation,87,Place,0
882,0.5,0,343,1,1971,b,A115A6OQBJFVVS,*DF,PlaceAssimilation,88,Voicing,1
883,0.5,0,388,1,2098,n,A115A6OQBJFVVS,*NF,PlaceAssimilation,89,Place,1
885,0.5,1,349,1,2473,ng,A115A6OQBJFVVS,*NF,PlaceAssimilation,91,Place,1
886,0.5,1,304,1,2036,d,A115A6OQBJFVVS,*DF,PlaceAssimilation,92,Voicing,1
887,0.5,0,346,1,2063,n,A115A6OQBJFVVS,*NF,PlaceAssimilation,93,Place,0
888,0.5,0,328,1,2873,b,A115A6OQBJFVVS,*DF,PlaceAssimilation,94,Voicing,0
890,0.5,1,319,1,2606,b,A115A6OQBJFVVS,*DF,PlaceAssimilation,96,Voicing,1
891,0.5,1,361,1,1803,ng,A115A6OQBJFVVS,*NF,PlaceAssimilation,97,Place,0
892,0.5,1,313,1,2113,d,A115A6OQBJFVVS,*DF,PlaceAssimilation,98,Voicing,0
893,0.5,0,373,1,2540,ng,A115A6OQBJFVVS,*NF,PlaceAssimilation,99,Place,1
895,0.5,1,397,1,2982,ng,A115A6OQBJFVVS,*NF,PlaceAssimilation,101,Place,0
896,0.5,1,289,1,2460,d,A115A6OQBJFVVS,*DF,PlaceAssimilation,102,Voicing,0
897,0.5,0,376,1,2337,n,A115A6OQBJFVVS,*NF,PlaceAssimilation,103,Place,0
898,0.5,1,310,1,2798,d,A115A6OQBJFVVS,*DF,PlaceAssimilation,104,Voicing,1
900,0.5,1,298,1,2316,d,A115A6OQBJFVVS,*DF,PlaceAssimilation,106,Voicing,1
902,0.5,1,286,1,5357,d,A115A6OQBJFVVS,*DF,PlaceAssimilation,108,Voicing,1
903,0.5,0,382,1,2302,n,A115A6OQBJFVVS,*NF,PlaceAssimilation,109,Place,0
904,0.5,1,316,1,4327,b,A115A6OQBJFVVS,*DF,PlaceAssimilation,110,Voicing,0
905,0.5,0,394,1,1813,n,A115A6OQBJFVVS,*NF,PlaceAssimilation,111,Place,1
907,0.5,0,370,1,1745,n,A115A6OQBJFVVS,*NF,PlaceAssimilation,113,Place,1
908,0.5,0,334,1,2533,b,A115A6OQBJFVVS,*DF,PlaceAssimilation,114,Voicing,1
910,0.5,1,295,1,2000,d,A115A6OQBJFVVS,*DF,PlaceAssimilation,116,Voicing,0
911,0.5,0,400,1,1642,n,A115A6OQBJFVVS,*NF,PlaceAssimilation,117,Place,1
912,0.5,1,322,1,1795,b,A115A6OQBJFVVS,*DF,PlaceAssimilation,118,Voicing,0
990,0.5,1,307,0,6030,d,A11HK2XJZAXPPX,*DF,Devoicing,69,Voicing,0
991,0.5,1,382,0,2666,n,A11HK2XJZAXPPX,*NF,Devoicing,70,Place,1
992,0.5,0,298,0,1987,d,A11HK2XJZAXPPX,*DF,Devoicing,71,Voicing,0
993,0.5,0,361,0,1947,ng,A11HK2XJZAXPPX,*NF,Devoicing,72,Place,1
994,0.5,0,310,0,1722,d,A11HK2XJZAXPPX,*DF,Devoicing,73,Voicing,1
997,0.5,0,394,0,1308,n,A11HK2XJZAXPPX,*NF,Devoicing,76,Place,1
998,0.5,0,286,0,1357,d,A11HK2XJZAXPPX,*DF,Devoicing,77,Voicing,1
1000,0.5,1,289,0,1426,d,A11HK2XJZAXPPX,*DF,Devoicing,79,Voicing,1
1001,0.5,1,346,0,1291,n,A11HK2XJZAXPPX,*NF,Devoicing,80,Place,1
1002,0.5,0,316,0,1717,b,A11HK2XJZAXPPX,*DF,Devoicing,81,Voicing,1
1003,0.5,0,370,0,1238,n,A11HK2XJZAXPPX,*NF,Devoicing,82,Place,0
1004,0.5,1,313,0,1637,d,A11HK2XJZAXPPX,*DF,Devoicing,83,Voicing,0
1005,0.5,1,385,0,1312,ng,A11HK2XJZAXPPX,*NF,Devoicing,84,Place,0
1007,0.5,1,352,0,1246,n,A11HK2XJZAXPPX,*NF,Devoicing,86,Place,1
1008,0.5,1,319,0,1200,b,A11HK2XJZAXPPX,*DF,Devoicing,87,Voicing,0
1009,0.5,1,355,0,1490,ng,A11HK2XJZAXPPX,*NF,Devoicing,88,Place,1
1010,0.5,1,322,0,1122,b,A11HK2XJZAXPPX,*DF,Devoicing,89,Voicing,0
1012,0.5,1,331,0,1036,b,A11HK2XJZAXPPX,*DF,Devoicing,91,Voicing,1
1013,0.5,0,373,0,1567,ng,A11HK2XJZAXPPX,*NF,Devoicing,92,Place,0
1015,0.5,0,400,0,1929,n,A11HK2XJZAXPPX,*NF,Devoicing,94,Place,1
1016,0.5,0,304,0,1330,d,A11HK2XJZAXPPX,*DF,Devoicing,95,Voicing,0
1017,0.5,1,379,0,1735,ng,A11HK2XJZAXPPX,*NF,Devoicing,96,Place,1
1018,0.5,0,340,0,1440,b,A11HK2XJZAXPPX,*DF,Devoicing,97,Voicing,1
1019,0.5,1,358,0,1163,n,A11HK2XJZAXPPX,*NF,Devoicing,98,Place,0
1020,0.5,1,328,0,890,b,A11HK2XJZAXPPX,*DF,Devoicing,99,Voicing,1
1021,0.5,0,364,0,880,n,A11HK2XJZAXPPX,*NF,Devoicing,100,Place,1
1022,0.5,0,295,0,1201,d,A11HK2XJZAXPPX,*DF,Devoicing,101,Voicing,1
1023,0.5,1,349,0,827,ng,A11HK2XJZAXPPX,*NF,Devoicing,102,Place,1
1024,0.5,0,325,0,766,b,A11HK2XJZAXPPX,*DF,Devoicing,103,Voicing,0
1025,0.5,1,403,0,756,ng,A11HK2XJZAXPPX,*NF,Devoicing,104,Place,0
1027,0.5,0,376,0,688,n,A11HK2XJZAXPPX,*NF,Devoicing,106,Place,1
1028,0.5,0,301,0,1786,d,A11HK2XJZAXPPX,*DF,Devoicing,107,Voicing,1
1029,0.5,0,397,0,2841,ng,A11HK2XJZAXPPX,*NF,Devoicing,108,Place,0
1030,0.5,0,343,0,816,b,A11HK2XJZAXPPX,*DF,Devoicing,109,Voicing,0
1031,0.5,0,367,0,3084,ng,A11HK2XJZAXPPX,*NF,Devoicing,110,Place,0
1032,0.5,1,337,0,726,b,A11HK2XJZAXPPX,*DF,Devoicing,111,Voicing,1
1034,0.5,0,292,0,758,d,A11HK2XJZAXPPX,*DF,Devoicing,113,Voicing,1
1036,0.5,0,334,0,764,b,A11HK2XJZAXPPX,*DF,Devoicing,115,Voicing,1
1037,0.5,1,388,0,636,n,A11HK2XJZAXPPX,*NF,Devoicing,116,Place,1
1039,0.5,1,391,0,615,ng,A11HK2XJZAXPPX,*NF,Devoicing,118,Place,1
1410,0.55,1,364,1,3367,n,A12BTFPKFKKD2I,*NF,PlaceAssimilation,70,Place,1
1411,0.55,1,307,1,2483,d,A12BTFPKFKKD2I,*DF,PlaceAssimilation,71,Voicing,0
1412,0.55,0,358,1,2655,n,A12BTFPKFKKD2I,*NF,PlaceAssimilation,72,Place,1
1413,0.55,1,295,1,3523,d,A12BTFPKFKKD2I,*DF,PlaceAssimilation,73,Voicing,0
1414,0.55,0,370,1,1683,n,A12BTFPKFKKD2I,*NF,PlaceAssimilation,74,Place,1
1415,0.55,1,313,1,1613,d,A12BTFPKFKKD2I,*DF,PlaceAssimilation,75,Voicing,1
1418,0.55,1,388,1,2725,n,A12BTFPKFKKD2I,*NF,PlaceAssimilation,78,Place,1
1419,0.55,1,325,1,4412,b,A12BTFPKFKKD2I,*DF,PlaceAssimilation,79,Voicing,1
1420,0.55,1,367,1,2196,ng,A12BTFPKFKKD2I,*NF,PlaceAssimilation,80,Place,1
1421,0.55,1,292,1,2570,d,A12BTFPKFKKD2I,*DF,PlaceAssimilation,81,Voicing,1
1422,0.55,1,385,1,2448,ng,A12BTFPKFKKD2I,*NF,PlaceAssimilation,82,Place,0
1424,0.55,1,355,1,1593,ng,A12BTFPKFKKD2I,*NF,PlaceAssimilation,84,Place,1
1425,0.55,0,304,1,2281,d,A12BTFPKFKKD2I,*DF,PlaceAssimilation,85,Voicing,0
1427,0.55,0,340,1,3444,b,A12BTFPKFKKD2I,*DF,PlaceAssimilation,87,Voicing,0
1429,0.55,1,301,1,1620,d,A12BTFPKFKKD2I,*DF,PlaceAssimilation,89,Voicing,1
1430,0.55,1,376,1,1927,n,A12BTFPKFKKD2I,*NF,PlaceAssimilation,90,Place,0
1431,0.55,0,286,1,1547,d,A12BTFPKFKKD2I,*DF,PlaceAssimilation,91,Voicing,1
1432,0.55,1,346,1,1711,n,A12BTFPKFKKD2I,*NF,PlaceAssimilation,92,Place,0
1434,0.55,1,400,1,1780,n,A12BTFPKFKKD2I,*NF,PlaceAssimilation,94,Place,1
1435,0.55,1,328,1,2482,b,A12BTFPKFKKD2I,*DF,PlaceAssimilation,95,Voicing,1
1436,0.55,1,403,1,1462,ng,A12BTFPKFKKD2I,*NF,PlaceAssimilation,96,Place,1
1437,0.55,0,331,1,1425,b,A12BTFPKFKKD2I,*DF,PlaceAssimilation,97,Voicing,0
1438,0.55,1,349,1,1467,ng,A12BTFPKFKKD2I,*NF,PlaceAssimilation,98,Place,0
1439,0.55,1,343,1,1695,b,A12BTFPKFKKD2I,*DF,PlaceAssimilation,99,Voicing,0
1440,0.55,1,379,1,1269,ng,A12BTFPKFKKD2I,*NF,PlaceAssimilation,100,Place,1
1441,0.55,0,316,1,1249,b,A12BTFPKFKKD2I,*DF,PlaceAssimilation,101,Voicing,1
1442,0.55,1,361,1,1193,ng,A12BTFPKFKKD2I,*NF,PlaceAssimilation,102,Place,0
1443,0.55,0,310,1,1727,d,A12BTFPKFKKD2I,*DF,PlaceAssimilation,103,Voicing,1
1445,0.55,1,334,1,1600,b,A12BTFPKFKKD2I,*DF,PlaceAssimilation,105,Voicing,0
1446,0.55,1,394,1,1584,n,A12BTFPKFKKD2I,*NF,PlaceAssimilation,106,Place,0
1447,0.55,1,298,1,1533,d,A12BTFPKFKKD2I,*DF,PlaceAssimilation,107,Voicing,1
1448,0.55,1,382,1,1495,n,A12BTFPKFKKD2I,*NF,PlaceAssimilation,108,Place,1
1449,0.55,1,319,1,2215,b,A12BTFPKFKKD2I,*DF,PlaceAssimilation,109,Voicing,0
1450,0.55,1,373,1,1055,ng,A12BTFPKFKKD2I,*NF,PlaceAssimilation,110,Place,1
1452,0.55,1,397,1,1369,ng,A12BTFPKFKKD2I,*NF,PlaceAssimilation,112,Place,0
1453,0.55,0,337,1,1594,b,A12BTFPKFKKD2I,*DF,PlaceAssimilation,113,Voicing,1
1454,0.55,1,391,1,1039,ng,A12BTFPKFKKD2I,*NF,PlaceAssimilation,114,Place,0
1455,0.55,1,289,1,1405,d,A12BTFPKFKKD2I,*DF,PlaceAssimilation,115,Voicing,1
1457,0.55,0,322,1,1466,b,A12BTFPKFKKD2I,*DF,PlaceAssimilation,117,Voicing,0
1458,0.55,1,352,1,1356,n,A12BTFPKFKKD2I,*NF,PlaceAssimilation,118,Place,1
1537,0.6,1,286,0,3552,d,A12E4GO4I2V4ZP,*DF,Devoicing,70,Voicing,0
1538,0.6,0,385,0,3650,ng,A12E4GO4I2V4ZP,*NF,Devoicing,71,Place,0
1539,0.6,1,343,0,6887,b,A12E4GO4I2V4ZP,*DF,Devoicing,72,Voicing,1
1540,0.6,1,364,0,4035,n,A12E4GO4I2V4ZP,*NF,Devoicing,73,Place,0
1541,0.6,0,289,0,4172,d,A12E4GO4I2V4ZP,*DF,Devoicing,74,Voicing,1
1543,0.6,1,310,0,2173,d,A12E4GO4I2V4ZP,*DF,Devoicing,76,Voicing,1
1544,0.6,0,349,0,2332,ng,A12E4GO4I2V4ZP,*NF,Devoicing,77,Place,1
1545,0.6,1,319,0,3613,b,A12E4GO4I2V4ZP,*DF,Devoicing,78,Voicing,0
1546,0.6,0,346,0,3300,n,A12E4GO4I2V4ZP,*NF,Devoicing,79,Place,0
1547,0.6,1,304,0,2752,d,A12E4GO4I2V4ZP,*DF,Devoicing,80,Voicing,1
1548,0.6,1,397,0,4831,ng,A12E4GO4I2V4ZP,*NF,Devoicing,81,Place,1
1549,0.6,1,331,0,1304,b,A12E4GO4I2V4ZP,*DF,Devoicing,82,Voicing,0
1550,0.6,1,367,0,1798,ng,A12E4GO4I2V4ZP,*NF,Devoicing,83,Place,1
1551,0.6,1,292,0,2067,d,A12E4GO4I2V4ZP,*DF,Devoicing,84,Voicing,0
1554,0.6,1,376,0,2347,n,A12E4GO4I2V4ZP,*NF,Devoicing,87,Place,1
1555,0.6,0,337,0,2357,b,A12E4GO4I2V4ZP,*DF,Devoicing,88,Voicing,0
1558,0.6,1,379,0,1934,ng,A12E4GO4I2V4ZP,*NF,Devoicing,91,Place,0
1559,0.6,0,328,0,1607,b,A12E4GO4I2V4ZP,*DF,Devoicing,92,Voicing,1
1560,0.6,1,388,0,1999,n,A12E4GO4I2V4ZP,*NF,Devoicing,93,Place,0
1561,0.6,1,313,0,1911,d,A12E4GO4I2V4ZP,*DF,Devoicing,94,Voicing,1
1562,0.6,1,394,0,3877,n,A12E4GO4I2V4ZP,*NF,Devoicing,95,Place,1
1564,0.6,0,361,0,1985,ng,A12E4GO4I2V4ZP,*NF,Devoicing,97,Place,1
1566,0.6,1,355,0,1455,ng,A12E4GO4I2V4ZP,*NF,Devoicing,99,Place,1
1567,0.6,0,334,0,1435,b,A12E4GO4I2V4ZP,*DF,Devoicing,100,Voicing,1
1568,0.6,0,370,0,1254,n,A12E4GO4I2V4ZP,*NF,Devoicing,101,Place,0
1569,0.6,0,295,0,1360,d,A12E4GO4I2V4ZP,*DF,Devoicing,102,Voicing,0
1570,0.6,1,373,0,1623,ng,A12E4GO4I2V4ZP,*NF,Devoicing,103,Place,0
1571,0.6,1,340,0,2304,b,A12E4GO4I2V4ZP,*DF,Devoicing,104,Voicing,0
1572,0.6,1,400,0,1846,n,A12E4GO4I2V4ZP,*NF,Devoicing,105,Place,1
1573,0.6,1,322,0,3975,b,A12E4GO4I2V4ZP,*DF,Devoicing,106,Voicing,0
1574,0.6,1,403,0,4313,ng,A12E4GO4I2V4ZP,*NF,Devoicing,107,Place,1
1575,0.6,1,301,0,1959,d,A12E4GO4I2V4ZP,*DF,Devoicing,108,Voicing,0
1577,0.6,1,316,0,1974,b,A12E4GO4I2V4ZP,*DF,Devoicing,110,Voicing,1
1578,0.6,1,382,0,3776,n,A12E4GO4I2V4ZP,*NF,Devoicing,111,Place,1
1579,0.6,0,298,0,1387,d,A12E4GO4I2V4ZP,*DF,Devoicing,112,Voicing,1
1580,0.6,1,391,0,2571,ng,A12E4GO4I2V4ZP,*NF,Devoicing,113,Place,0
1581,0.6,1,307,0,931,d,A12E4GO4I2V4ZP,*DF,Devoicing,114,Voicing,1
1582,0.6,1,352,0,1245,n,A12E4GO4I2V4ZP,*NF,Devoicing,115,Place,1
1584,0.6,0,358,0,1336,n,A12E4GO4I2V4ZP,*NF,Devoicing,117,Place,0
1585,0.6,1,325,0,1967,b,A12E4GO4I2V4ZP,*DF,Devoicing,118,Voicing,1
2504,0.55,1,304,0,6610,d,A138CW0E10XK58,*DF,Devoicing,69,Voicing,0
2505,0.55,1,355,0,4389,ng,A138CW0E10XK58,*NF,Devoicing,70,Place,0
2506,0.55,0,340,0,4571,b,A138CW0E10XK58,*DF,Devoicing,71,Voicing,1
2508,0.55,1,295,0,3346,d,A138CW0E10XK58,*DF,Devoicing,73,Voicing,0
2509,0.55,0,385,0,3572,ng,A138CW0E10XK58,*NF,Devoicing,74,Place,0
2510,0.55,1,289,0,4451,d,A138CW0E10XK58,*DF,Devoicing,75,Voicing,1
2513,0.55,0,349,0,3699,ng,A138CW0E10XK58,*NF,Devoicing,78,Place,0
2514,0.55,1,325,0,8049,b,A138CW0E10XK58,*DF,Devoicing,79,Voicing,0
2515,0.55,0,352,0,2636,n,A138CW0E10XK58,*NF,Devoicing,80,Place,0
2517,0.55,1,358,0,3320,n,A138CW0E10XK58,*NF,Devoicing,82,Place,0
2519,0.55,1,397,0,3364,ng,A138CW0E10XK58,*NF,Devoicing,84,Place,0
2520,0.55,0,301,0,3269,d,A138CW0E10XK58,*DF,Devoicing,85,Voicing,1
2521,0.55,1,391,0,3153,ng,A138CW0E10XK58,*NF,Devoicing,86,Place,1
2523,0.55,0,394,0,2348,n,A138CW0E10XK58,*NF,Devoicing,88,Place,1
2524,0.55,1,322,0,2940,b,A138CW0E10XK58,*DF,Devoicing,89,Voicing,0
2525,0.55,1,370,0,3198,n,A138CW0E10XK58,*NF,Devoicing,90,Place,0
2526,0.55,1,286,0,2604,d,A138CW0E10XK58,*DF,Devoicing,91,Voicing,1
2527,0.55,0,403,0,3796,ng,A138CW0E10XK58,*NF,Devoicing,92,Place,1
2528,0.55,1,298,0,2711,d,A138CW0E10XK58,*DF,Devoicing,93,Voicing,0
2529,0.55,1,379,0,3280,ng,A138CW0E10XK58,*NF,Devoicing,94,Place,0
2530,0.55,1,328,0,2780,b,A138CW0E10XK58,*DF,Devoicing,95,Voicing,0
2531,0.55,1,400,0,5234,n,A138CW0E10XK58,*NF,Devoicing,96,Place,1
2532,0.55,1,310,0,2641,d,A138CW0E10XK58,*DF,Devoicing,97,Voicing,0
2533,0.55,1,373,0,2581,ng,A138CW0E10XK58,*NF,Devoicing,98,Place,1
2534,0.55,0,334,0,4489,b,A138CW0E10XK58,*DF,Devoicing,99,Voicing,1
2535,0.55,1,388,0,2752,n,A138CW0E10XK58,*NF,Devoicing,100,Place,0
2537,0.55,0,382,0,2996,n,A138CW0E10XK58,*NF,Devoicing,102,Place,0
2538,0.55,1,331,0,2810,b,A138CW0E10XK58,*DF,Devoicing,103,Voicing,0
2539,0.55,1,376,0,2984,n,A138CW0E10XK58,*NF,Devoicing,104,Place,1
2540,0.55,1,337,0,3344,b,A138CW0E10XK58,*DF,Devoicing,105,Voicing,1
2541,0.55,0,367,0,3357,ng,A138CW0E10XK58,*NF,Devoicing,106,Place,0
2542,0.55,1,307,0,2686,d,A138CW0E10XK58,*DF,Devoicing,107,Voicing,0
2544,0.55,0,343,0,2137,b,A138CW0E10XK58,*DF,Devoicing,109,Voicing,1
2545,0.55,1,364,0,2162,n,A138CW0E10XK58,*NF,Devoicing,110,Place,0
2546,0.55,0,319,0,4653,b,A138CW0E10XK58,*DF,Devoicing,111,Voicing,0
2547,0.55,1,346,0,2498,n,A138CW0E10XK58,*NF,Devoicing,112,Place,1
2548,0.55,1,313,0,3372,d,A138CW0E10XK58,*DF,Devoicing,113,Voicing,0
2550,0.55,1,292,0,3625,d,A138CW0E10XK58,*DF,Devoicing,115,Voicing,1
2551,0.55,1,361,0,2942,ng,A138CW0E10XK58,*NF,Devoicing,116,Place,1
2552,0.55,1,316,0,3710,b,A138CW0E10XK58,*DF,Devoicing,117,Voicing,1
3419,0.7,0,382,0,6439,n,A15WHHFIYMQ1LS,*NF,Devoicing,69,Place,0
3420,0.7,0,298,0,9267,d,A15WHHFIYMQ1LS,*DF,Devoicing,70,Voicing,0
3421,0.7,1,370,0,3258,n,A15WHHFIYMQ1LS,*NF,Devoicing,71,Place,1
3422,0.7,0,307,0,3099,d,A15WHHFIYMQ1LS,*DF,Devoicing,72,Voicing,0
3423,0.7,0,358,0,2499,n,A15WHHFIYMQ1LS,*NF,Devoicing,73,Place,1
3425,0.7,0,397,0,2697,ng,A15WHHFIYMQ1LS,*NF,Devoicing,75,Place,0
3430,0.7,1,286,0,2498,d,A15WHHFIYMQ1LS,*DF,Devoicing,80,Voicing,0
3431,0.7,0,349,0,1814,ng,A15WHHFIYMQ1LS,*NF,Devoicing,81,Place,1
3432,0.7,1,313,0,2060,d,A15WHHFIYMQ1LS,*DF,Devoicing,82,Voicing,1
3433,0.7,0,394,0,2236,n,A15WHHFIYMQ1LS,*NF,Devoicing,83,Place,0
3434,0.7,0,322,0,5972,b,A15WHHFIYMQ1LS,*DF,Devoicing,84,Voicing,0
3435,0.7,1,379,0,2345,ng,A15WHHFIYMQ1LS,*NF,Devoicing,85,Place,0
3436,0.7,1,325,0,5017,b,A15WHHFIYMQ1LS,*DF,Devoicing,86,Voicing,0
3437,0.7,1,388,0,3092,n,A15WHHFIYMQ1LS,*NF,Devoicing,87,Place,1
3438,0.7,1,304,0,3090,d,A15WHHFIYMQ1LS,*DF,Devoicing,88,Voicing,0
3439,0.7,0,400,0,6245,n,A15WHHFIYMQ1LS,*NF,Devoicing,89,Place,0
3440,0.7,1,310,0,1643,d,A15WHHFIYMQ1LS,*DF,Devoicing,90,Voicing,1
3441,0.7,0,376,0,4614,n,A15WHHFIYMQ1LS,*NF,Devoicing,91,Place,1
3442,0.7,0,289,0,2843,d,A15WHHFIYMQ1LS,*DF,Devoicing,92,Voicing,1
3443,0.7,0,346,0,1955,n,A15WHHFIYMQ1LS,*NF,Devoicing,93,Place,1
3444,0.7,0,331,0,3034,b,A15WHHFIYMQ1LS,*DF,Devoicing,94,Voicing,1
3445,0.7,0,361,0,2564,ng,A15WHHFIYMQ1LS,*NF,Devoicing,95,Place,1
3446,0.7,1,292,0,3533,d,A15WHHFIYMQ1LS,*DF,Devoicing,96,Voicing,1
3448,0.7,1,340,0,1759,b,A15WHHFIYMQ1LS,*DF,Devoicing,98,Voicing,1
3449,0.7,1,352,0,1403,n,A15WHHFIYMQ1LS,*NF,Devoicing,99,Place,1
3450,0.7,0,316,0,4041,b,A15WHHFIYMQ1LS,*DF,Devoicing,100,Voicing,1
3451,0.7,0,385,0,2577,ng,A15WHHFIYMQ1LS,*NF,Devoicing,101,Place,0
3453,0.7,0,391,0,1692,ng,A15WHHFIYMQ1LS,*NF,Devoicing,103,Place,1
3454,0.7,1,295,0,1972,d,A15WHHFIYMQ1LS,*DF,Devoicing,104,Voicing,0
3455,0.7,0,367,0,1579,ng,A15WHHFIYMQ1LS,*NF,Devoicing,105,Place,0
3456,0.7,0,301,0,5675,d,A15WHHFIYMQ1LS,*DF,Devoicing,106,Voicing,0
3457,0.7,0,373,0,2006,ng,A15WHHFIYMQ1LS,*NF,Devoicing,107,Place,1
3458,0.7,1,319,0,1748,b,A15WHHFIYMQ1LS,*DF,Devoicing,108,Voicing,1
3461,0.7,0,355,0,1700,ng,A15WHHFIYMQ1LS,*NF,Devoicing,111,Place,1
3462,0.7,1,328,0,1731,b,A15WHHFIYMQ1LS,*DF,Devoicing,112,Voicing,0
3463,0.7,0,403,0,2051,ng,A15WHHFIYMQ1LS,*NF,Devoicing,113,Place,0
3464,0.7,1,337,0,2180,b,A15WHHFIYMQ1LS,*DF,Devoicing,114,Voicing,1
3465,0.7,0,364,0,1905,n,A15WHHFIYMQ1LS,*NF,Devoicing,115,Place,1
3466,0.7,0,343,0,1877,b,A15WHHFIYMQ1LS,*DF,Devoicing,116,Voicing,1
3468,0.7,0,334,0,2788,b,A15WHHFIYMQ1LS,*DF,Devoicing,118,Voicing,0
3546,0.85,0,346,1,13317,n,A167SYXGXFU7C8,*NF,PlaceAssimilation,69,Place,1
3548,0.85,0,403,1,12109,ng,A167SYXGXFU7C8,*NF,PlaceAssimilation,71,Place,0
3549,0.85,1,286,1,3725,d,A167SYXGXFU7C8,*DF,PlaceAssimilation,72,Voicing,0
3550,0.85,0,355,1,3325,ng,A167SYXGXFU7C8,*NF,PlaceAssimilation,73,Place,0
3551,0.85,0,328,1,9029,b,A167SYXGXFU7C8,*DF,PlaceAssimilation,74,Voicing,1
3552,0.85,0,370,1,4469,n,A167SYXGXFU7C8,*NF,PlaceAssimilation,75,Place,1
3553,0.85,1,313,1,6198,d,A167SYXGXFU7C8,*DF,PlaceAssimilation,76,Voicing,0
3554,0.85,1,400,1,6830,n,A167SYXGXFU7C8,*NF,PlaceAssimilation,77,Place,0
3555,0.85,0,325,1,4926,b,A167SYXGXFU7C8,*DF,PlaceAssimilation,78,Voicing,1
3556,0.85,1,394,1,7053,n,A167SYXGXFU7C8,*NF,PlaceAssimilation,79,Place,1
3557,0.85,1,343,1,3453,b,A167SYXGXFU7C8,*DF,PlaceAssimilation,80,Voicing,0
3558,0.85,0,367,1,6950,ng,A167SYXGXFU7C8,*NF,PlaceAssimilation,81,Place,0
3559,0.85,1,322,1,5222,b,A167SYXGXFU7C8,*DF,PlaceAssimilation,82,Voicing,0
3562,0.85,0,382,1,6566,n,A167SYXGXFU7C8,*NF,PlaceAssimilation,85,Place,1
3564,0.85,1,349,1,8766,ng,A167SYXGXFU7C8,*NF,PlaceAssimilation,87,Place,0
3565,0.85,1,301,1,5310,d,A167SYXGXFU7C8,*DF,PlaceAssimilation,88,Voicing,1
3567,0.85,0,304,1,4326,d,A167SYXGXFU7C8,*DF,PlaceAssimilation,90,Voicing,1
3568,0.85,0,358,1,5246,n,A167SYXGXFU7C8,*NF,PlaceAssimilation,91,Place,1
3569,0.85,1,319,1,3703,b,A167SYXGXFU7C8,*DF,PlaceAssimilation,92,Voicing,1
3570,0.85,0,352,1,5021,n,A167SYXGXFU7C8,*NF,PlaceAssimilation,93,Place,1
3571,0.85,1,307,1,3718,d,A167SYXGXFU7C8,*DF,PlaceAssimilation,94,Voicing,1
3575,0.85,1,310,1,4446,d,A167SYXGXFU7C8,*DF,PlaceAssimilation,98,Voicing,1
3576,0.85,0,376,1,7062,n,A167SYXGXFU7C8,*NF,PlaceAssimilation,99,Place,0
3577,0.85,0,337,1,3918,b,A167SYXGXFU7C8,*DF,PlaceAssimilation,100,Voicing,1
3578,0.85,1,391,1,5206,ng,A167SYXGXFU7C8,*NF,PlaceAssimilation,101,Place,0
3579,0.85,1,289,1,5166,d,A167SYXGXFU7C8,*DF,PlaceAssimilation,102,Voicing,1
3580,0.85,1,397,1,5241,ng,A167SYXGXFU7C8,*NF,PlaceAssimilation,103,Place,1
3581,0.85,0,316,1,7099,b,A167SYXGXFU7C8,*DF,PlaceAssimilation,104,Voicing,1
3582,0.85,1,364,1,5486,n,A167SYXGXFU7C8,*NF,PlaceAssimilation,105,Place,0
3583,0.85,0,298,1,4222,d,A167SYXGXFU7C8,*DF,PlaceAssimilation,106,Voicing,1
3585,0.85,1,295,1,2654,d,A167SYXGXFU7C8,*DF,PlaceAssimilation,108,Voicing,0
3586,0.85,1,388,1,3262,n,A167SYXGXFU7C8,*NF,PlaceAssimilation,109,Place,1
3587,0.85,0,340,1,5142,b,A167SYXGXFU7C8,*DF,PlaceAssimilation,110,Voicing,1
3588,0.85,1,379,1,3054,ng,A167SYXGXFU7C8,*NF,PlaceAssimilation,111,Place,0
3590,0.85,1,361,1,3910,ng,A167SYXGXFU7C8,*NF,PlaceAssimilation,113,Place,0
3591,0.85,1,331,1,6060,b,A167SYXGXFU7C8,*DF,PlaceAssimilation,114,Voicing,0
3592,0.85,1,385,1,2974,ng,A167SYXGXFU7C8,*NF,PlaceAssimilation,115,Place,0
3593,0.85,1,292,1,9054,d,A167SYXGXFU7C8,*DF,PlaceAssimilation,116,Voicing,1
3594,0.85,1,373,1,3718,ng,A167SYXGXFU7C8,*NF,PlaceAssimilation,117,Place,1
3595,0.85,0,334,1,4934,b,A167SYXGXFU7C8,*DF,PlaceAssimilation,118,Voicing,0
3819,0.55,0,298,0,7904,d,A16TB6KOY5OX79,*DF,Devoicing,69,Voicing,1
3821,0.55,0,292,0,2855,d,A16TB6KOY5OX79,*DF,Devoicing,71,Voicing,0
3822,0.55,1,367,0,5156,ng,A16TB6KOY5OX79,*NF,Devoicing,72,Place,0
3823,0.55,0,319,0,4900,b,A16TB6KOY5OX79,*DF,Devoicing,73,Voicing,1
3824,0.55,0,370,0,3524,n,A16TB6KOY5OX79,*NF,Devoicing,74,Place,0
3826,0.55,0,376,0,3116,n,A16TB6KOY5OX79,*NF,Devoicing,76,Place,1
3827,0.55,0,328,0,3889,b,A16TB6KOY5OX79,*DF,Devoicing,77,Voicing,1
3828,0.55,0,403,0,3703,ng,A16TB6KOY5OX79,*NF,Devoicing,78,Place,1
3829,0.55,1,307,0,3984,d,A16TB6KOY5OX79,*DF,Devoicing,79,Voicing,1
3830,0.55,0,349,0,5168,ng,A16TB6KOY5OX79,*NF,Devoicing,80,Place,1
3831,0.55,1,304,0,3933,d,A16TB6KOY5OX79,*DF,Devoicing,81,Voicing,0
3832,0.55,0,352,0,3245,n,A16TB6KOY5OX79,*NF,Devoicing,82,Place,1
3833,0.55,0,322,0,4342,b,A16TB6KOY5OX79,*DF,Devoicing,83,Voicing,0
3834,0.55,0,391,0,2629,ng,A16TB6KOY5OX79,*NF,Devoicing,84,Place,0
3835,0.55,1,295,0,2570,d,A16TB6KOY5OX79,*DF,Devoicing,85,Voicing,0
3836,0.55,1,379,0,3572,ng,A16TB6KOY5OX79,*NF,Devoicing,86,Place,0
3837,0.55,1,340,0,5899,b,A16TB6KOY5OX79,*DF,Devoicing,87,Voicing,0
3839,0.55,1,310,0,2433,d,A16TB6KOY5OX79,*DF,Devoicing,89,Voicing,0
3842,0.55,0,358,0,5372,n,A16TB6KOY5OX79,*NF,Devoicing,92,Place,0
3843,0.55,0,334,0,2685,b,A16TB6KOY5OX79,*DF,Devoicing,93,Voicing,0
3844,0.55,1,364,0,2800,n,A16TB6KOY5OX79,*NF,Devoicing,94,Place,1
3845,0.55,1,313,0,4216,d,A16TB6KOY5OX79,*DF,Devoicing,95,Voicing,0
3846,0.55,1,355,0,2536,ng,A16TB6KOY5OX79,*NF,Devoicing,96,Place,0
3847,0.55,1,301,0,2008,d,A16TB6KOY5OX79,*DF,Devoicing,97,Voicing,1
3849,0.55,0,343,0,2381,b,A16TB6KOY5OX79,*DF,Devoicing,99,Voicing,1
3850,0.55,0,373,0,4692,ng,A16TB6KOY5OX79,*NF,Devoicing,100,Place,0
3851,0.55,1,331,0,3354,b,A16TB6KOY5OX79,*DF,Devoicing,101,Voicing,0
3852,0.55,1,382,0,2792,n,A16TB6KOY5OX79,*NF,Devoicing,102,Place,0
3853,0.55,0,337,0,4493,b,A16TB6KOY5OX79,*DF,Devoicing,103,Voicing,0
3854,0.55,0,400,0,1946,n,A16TB6KOY5OX79,*NF,Devoicing,104,Place,1
3856,0.55,0,388,0,2921,n,A16TB6KOY5OX79,*NF,Devoicing,106,Place,1
3857,0.55,1,325,0,3935,b,A16TB6KOY5OX79,*DF,Devoicing,107,Voicing,1
3858,0.55,1,397,0,3284,ng,A16TB6KOY5OX79,*NF,Devoicing,108,Place,1
3859,0.55,1,289,0,3323,d,A16TB6KOY5OX79,*DF,Devoicing,109,Voicing,1
3860,0.55,0,385,0,4623,ng,A16TB6KOY5OX79,*NF,Devoicing,110,Place,1
3864,0.55,0,346,0,2311,n,A16TB6KOY5OX79,*NF,Devoicing,114,Place,0
3865,0.55,1,316,0,1894,b,A16TB6KOY5OX79,*DF,Devoicing,115,Voicing,0
3866,0.55,0,394,0,2121,n,A16TB6KOY5OX79,*NF,Devoicing,116,Place,1
3867,0.55,1,286,0,1755,d,A16TB6KOY5OX79,*DF,Devoicing,117,Voicing,0
3868,0.55,1,361,0,6341,ng,A16TB6KOY5OX79,*NF,Devoicing,118,Place,1
4142,0.6,1,307,1,4769,d,A17IWKV4G3N25X,*DF,PlaceAssimilation,69,Voicing,1
4144,0.6,1,286,1,1849,d,A17IWKV4G3N25X,*DF,PlaceAssimilation,71,Voicing,0
4145,0.6,1,385,1,1317,ng,A17IWKV4G3N25X,*NF,PlaceAssimilation,72,Place,1
4146,0.6,1,319,1,2285,b,A17IWKV4G3N25X,*DF,PlaceAssimilation,73,Voicing,0
4147,0.6,0,403,1,2080,ng,A17IWKV4G3N25X,*NF,PlaceAssimilation,74,Place,0
4148,0.6,1,316,1,2078,b,A17IWKV4G3N25X,*DF,PlaceAssimilation,75,Voicing,0
4149,0.6,1,376,1,2364,n,A17IWKV4G3N25X,*NF,PlaceAssimilation,76,Place,1
4150,0.6,0,334,1,2132,b,A17IWKV4G3N25X,*DF,PlaceAssimilation,77,Voicing,0
4152,0.6,1,295,1,2090,d,A17IWKV4G3N25X,*DF,PlaceAssimilation,79,Voicing,1
4153,0.6,0,373,1,1750,ng,A17IWKV4G3N25X,*NF,PlaceAssimilation,80,Place,0
4154,0.6,1,337,1,1843,b,A17IWKV4G3N25X,*DF,PlaceAssimilation,81,Voicing,0
4155,0.6,0,397,1,2253,ng,A17IWKV4G3N25X,*NF,PlaceAssimilation,82,Place,1
4156,0.6,1,298,1,1724,d,A17IWKV4G3N25X,*DF,PlaceAssimilation,83,Voicing,1
4157,0.6,0,400,1,2096,n,A17IWKV4G3N25X,*NF,PlaceAssimilation,84,Place,1
4158,0.6,0,331,1,1491,b,A17IWKV4G3N25X,*DF,PlaceAssimilation,85,Voicing,1
4159,0.6,1,388,1,1471,n,A17IWKV4G3N25X,*NF,PlaceAssimilation,86,Place,1
4160,0.6,0,343,1,1226,b,A17IWKV4G3N25X,*DF,PlaceAssimilation,87,Voicing,1
4161,0.6,0,361,1,1873,ng,A17IWKV4G3N25X,*NF,PlaceAssimilation,88,Place,0
4164,0.6,1,322,1,1245,b,A17IWKV4G3N25X,*DF,PlaceAssimilation,91,Voicing,1
4166,0.6,1,340,1,3037,b,A17IWKV4G3N25X,*DF,PlaceAssimilation,93,Voicing,1
4167,0.6,0,358,1,4654,n,A17IWKV4G3N25X,*NF,PlaceAssimilation,94,Place,1
4168,0.6,0,328,1,1737,b,A17IWKV4G3N25X,*DF,PlaceAssimilation,95,Voicing,0
4169,0.6,1,346,1,3142,n,A17IWKV4G3N25X,*NF,PlaceAssimilation,96,Place,1
4171,0.6,1,379,1,2143,ng,A17IWKV4G3N25X,*NF,PlaceAssimilation,98,Place,0
4172,0.6,1,301,1,2217,d,A17IWKV4G3N25X,*DF,PlaceAssimilation,99,Voicing,0
4173,0.6,0,382,1,2285,n,A17IWKV4G3N25X,*NF,PlaceAssimilation,100,Place,1
4174,0.6,1,310,1,1703,d,A17IWKV4G3N25X,*DF,PlaceAssimilation,101,Voicing,1
4175,0.6,0,364,1,2333,n,A17IWKV4G3N25X,*NF,PlaceAssimilation,102,Place,1
4176,0.6,1,289,1,1890,d,A17IWKV4G3N25X,*DF,PlaceAssimilation,103,Voicing,1
4177,0.6,1,394,1,1650,n,A17IWKV4G3N25X,*NF,PlaceAssimilation,104,Place,1
4178,0.6,1,304,1,1782,d,A17IWKV4G3N25X,*DF,PlaceAssimilation,105,Voicing,1
4179,0.6,0,367,1,1622,ng,A17IWKV4G3N25X,*NF,PlaceAssimilation,106,Place,1
4181,0.6,1,391,1,1904,ng,A17IWKV4G3N25X,*NF,PlaceAssimilation,108,Place,1
4182,0.6,1,292,1,1456,d,A17IWKV4G3N25X,*DF,PlaceAssimilation,109,Voicing,1
4185,0.6,0,352,1,1331,n,A17IWKV4G3N25X,*NF,PlaceAssimilation,112,Place,1
4186,0.6,1,325,1,1482,b,A17IWKV4G3N25X,*DF,PlaceAssimilation,113,Voicing,1
4187,0.6,0,349,1,2167,ng,A17IWKV4G3N25X,*NF,PlaceAssimilation,114,Place,0
4189,0.6,0,370,1,1544,n,A17IWKV4G3N25X,*NF,PlaceAssimilation,116,Place,1
4190,0.6,0,313,1,1596,d,A17IWKV4G3N25X,*DF,PlaceAssimilation,117,Voicing,1
4191,0.6,1,355,1,2009,ng,A17IWKV4G3N25X,*NF,PlaceAssimilation,118,Place,0
4269,0.5,1,325,1,7366,b,A17KJJEFSH5S25,*DF,PlaceAssimilation,69,Voicing,1
4271,0.5,0,328,1,1544,b,A17KJJEFSH5S25,*DF,PlaceAssimilation,71,Voicing,1
4272,0.5,0,382,1,1950,n,A17KJJEFSH5S25,*NF,PlaceAssimilation,72,Place,1
4273,0.5,1,289,1,2847,d,A17KJJEFSH5S25,*DF,PlaceAssimilation,73,Voicing,1
4274,0.5,1,397,1,2352,ng,A17KJJEFSH5S25,*NF,PlaceAssimilation,74,Place,1
4276,0.5,0,400,1,2005,n,A17KJJEFSH5S25,*NF,PlaceAssimilation,76,Place,1
4277,0.5,0,337,1,2088,b,A17KJJEFSH5S25,*DF,PlaceAssimilation,77,Voicing,1
4278,0.5,0,403,1,1523,ng,A17KJJEFSH5S25,*NF,PlaceAssimilation,78,Place,0
4280,0.5,0,376,1,1738,n,A17KJJEFSH5S25,*NF,PlaceAssimilation,80,Place,1
4283,0.5,1,298,1,1821,d,A17KJJEFSH5S25,*DF,PlaceAssimilation,83,Voicing,0
4284,0.5,0,370,1,1540,n,A17KJJEFSH5S25,*NF,PlaceAssimilation,84,Place,1
4285,0.5,1,340,1,1754,b,A17KJJEFSH5S25,*DF,PlaceAssimilation,85,Voicing,1
4287,0.5,0,322,1,2579,b,A17KJJEFSH5S25,*DF,PlaceAssimilation,87,Voicing,1
4288,0.5,0,349,1,3303,ng,A17KJJEFSH5S25,*NF,PlaceAssimilation,88,Place,0
4289,0.5,0,343,1,2531,b,A17KJJEFSH5S25,*DF,PlaceAssimilation,89,Voicing,1
4290,0.5,1,367,1,2269,ng,A17KJJEFSH5S25,*NF,PlaceAssimilation,90,Place,1
4291,0.5,1,331,1,1817,b,A17KJJEFSH5S25,*DF,PlaceAssimilation,91,Voicing,1
4292,0.5,0,394,1,2849,n,A17KJJEFSH5S25,*NF,PlaceAssimilation,92,Place,0
4293,0.5,0,313,1,18981,d,A17KJJEFSH5S25,*DF,PlaceAssimilation,93,Voicing,0
4294,0.5,1,379,1,1976,ng,A17KJJEFSH5S25,*NF,PlaceAssimilation,94,Place,1
4295,0.5,0,310,1,1558,d,A17KJJEFSH5S25,*DF,PlaceAssimilation,95,Voicing,1
4296,0.5,1,355,1,2145,ng,A17KJJEFSH5S25,*NF,PlaceAssimilation,96,Place,0
4298,0.5,0,358,1,1418,n,A17KJJEFSH5S25,*NF,PlaceAssimilation,98,Place,1
4299,0.5,1,301,1,1256,d,A17KJJEFSH5S25,*DF,PlaceAssimilation,99,Voicing,1
4300,0.5,0,352,1,1174,n,A17KJJEFSH5S25,*NF,PlaceAssimilation,100,Place,0
4301,0.5,0,286,1,1615,d,A17KJJEFSH5S25,*DF,PlaceAssimilation,101,Voicing,1
4303,0.5,0,307,1,1377,d,A17KJJEFSH5S25,*DF,PlaceAssimilation,103,Voicing,0
4304,0.5,1,361,1,2402,ng,A17KJJEFSH5S25,*NF,PlaceAssimilation,104,Place,0
4305,0.5,0,334,1,1667,b,A17KJJEFSH5S25,*DF,PlaceAssimilation,105,Voicing,0
4306,0.5,0,388,1,2478,n,A17KJJEFSH5S25,*NF,PlaceAssimilation,106,Place,1
4308,0.5,0,346,1,2166,n,A17KJJEFSH5S25,*NF,PlaceAssimilation,108,Place,0
4309,0.5,1,319,1,1448,b,A17KJJEFSH5S25,*DF,PlaceAssimilation,109,Voicing,1
4310,0.5,0,373,1,1335,ng,A17KJJEFSH5S25,*NF,PlaceAssimilation,110,Place,1
4311,0.5,0,295,1,2098,d,A17KJJEFSH5S25,*DF,PlaceAssimilation,111,Voicing,1
4313,0.5,1,316,1,2128,b,A17KJJEFSH5S25,*DF,PlaceAssimilation,113,Voicing,1
4314,0.5,1,385,1,2691,ng,A17KJJEFSH5S25,*NF,PlaceAssimilation,114,Place,1
4315,0.5,1,292,1,2287,d,A17KJJEFSH5S25,*DF,PlaceAssimilation,115,Voicing,1
4316,0.5,1,391,1,1868,ng,A17KJJEFSH5S25,*NF,PlaceAssimilation,116,Place,0
4317,0.5,0,304,1,2000,d,A17KJJEFSH5S25,*DF,PlaceAssimilation,117,Voicing,0
4318,0.5,1,364,1,2163,n,A17KJJEFSH5S25,*NF,PlaceAssimilation,118,Place,0
4396,0.5,0,331,1,4387,b,A17KZPGCY7PACK,*DF,PlaceAssimilation,69,Voicing,1
4397,0.5,1,373,1,1994,ng,A17KZPGCY7PACK,*NF,PlaceAssimilation,70,Place,1
4398,0.5,1,286,1,2500,d,A17KZPGCY7PACK,*DF,PlaceAssimilation,71,Voicing,0
4400,0.5,1,295,1,3725,d,A17KZPGCY7PACK,*DF,PlaceAssimilation,73,Voicing,1
4401,0.5,1,403,1,2196,ng,A17KZPGCY7PACK,*NF,PlaceAssimilation,74,Place,0
4402,0.5,0,310,1,2637,d,A17KZPGCY7PACK,*DF,PlaceAssimilation,75,Voicing,0
4403,0.5,1,388,1,2008,n,A17KZPGCY7PACK,*NF,PlaceAssimilation,76,Place,1
4405,0.5,0,391,1,1763,ng,A17KZPGCY7PACK,*NF,PlaceAssimilation,78,Place,0
4406,0.5,0,292,1,2637,d,A17KZPGCY7PACK,*DF,PlaceAssimilation,79,Voicing,1
4407,0.5,1,379,1,4708,ng,A17KZPGCY7PACK,*NF,PlaceAssimilation,80,Place,0
4409,0.5,0,355,1,3177,ng,A17KZPGCY7PACK,*NF,PlaceAssimilation,82,Place,1
4410,0.5,1,316,1,2913,b,A17KZPGCY7PACK,*DF,PlaceAssimilation,83,Voicing,1
4411,0.5,1,397,1,3060,ng,A17KZPGCY7PACK,*NF,PlaceAssimilation,84,Place,1
4412,0.5,1,301,1,3227,d,A17KZPGCY7PACK,*DF,PlaceAssimilation,85,Voicing,0
4413,0.5,1,352,1,2877,n,A17KZPGCY7PACK,*NF,PlaceAssimilation,86,Place,0
4414,0.5,0,313,1,2826,d,A17KZPGCY7PACK,*DF,PlaceAssimilation,87,Voicing,1
4417,0.5,1,349,1,1560,ng,A17KZPGCY7PACK,*NF,PlaceAssimilation,90,Place,0
4418,0.5,1,304,1,4497,d,A17KZPGCY7PACK,*DF,PlaceAssimilation,91,Voicing,0
4419,0.5,1,394,1,2473,n,A17KZPGCY7PACK,*NF,PlaceAssimilation,92,Place,0
4420,0.5,1,334,1,2857,b,A17KZPGCY7PACK,*DF,PlaceAssimilation,93,Voicing,1
4421,0.5,1,346,1,1749,n,A17KZPGCY7PACK,*NF,PlaceAssimilation,94,Place,0
4422,0.5,0,319,1,3285,b,A17KZPGCY7PACK,*DF,PlaceAssimilation,95,Voicing,1
4423,0.5,1,370,1,2560,n,A17KZPGCY7PACK,*NF,PlaceAssimilation,96,Place,0
4424,0.5,1,337,1,3467,b,A17KZPGCY7PACK,*DF,PlaceAssimilation,97,Voicing,0
4425,0.5,1,376,1,3698,n,A17KZPGCY7PACK,*NF,PlaceAssimilation,98,Place,0
4426,0.5,1,325,1,3859,b,A17KZPGCY7PACK,*DF,PlaceAssimilation,99,Voicing,0
4428,0.5,1,289,1,2009,d,A17KZPGCY7PACK,*DF,PlaceAssimilation,101,Voicing,1
4431,0.5,1,364,1,1960,n,A17KZPGCY7PACK,*NF,PlaceAssimilation,104,Place,1
4432,0.5,1,340,1,2610,b,A17KZPGCY7PACK,*DF,PlaceAssimilation,105,Voicing,1
4433,0.5,1,385,1,5642,ng,A17KZPGCY7PACK,*NF,PlaceAssimilation,106,Place,1
4434,0.5,1,343,1,2505,b,A17KZPGCY7PACK,*DF,PlaceAssimilation,107,Voicing,0
4435,0.5,1,400,1,3097,n,A17KZPGCY7PACK,*NF,PlaceAssimilation,108,Place,0
4436,0.5,0,328,1,1981,b,A17KZPGCY7PACK,*DF,PlaceAssimilation,109,Voicing,0
4437,0.5,1,361,1,3559,ng,A17KZPGCY7PACK,*NF,PlaceAssimilation,110,Place,1
4438,0.5,1,298,1,5014,d,A17KZPGCY7PACK,*DF,PlaceAssimilation,111,Voicing,0
4439,0.5,1,358,1,2747,n,A17KZPGCY7PACK,*NF,PlaceAssimilation,112,Place,0
4440,0.5,1,307,1,2059,d,A17KZPGCY7PACK,*DF,PlaceAssimilation,113,Voicing,1
4443,0.5,1,367,1,2643,ng,A17KZPGCY7PACK,*NF,PlaceAssimilation,116,Place,0
4444,0.5,1,322,1,4046,b,A17KZPGCY7PACK,*DF,PlaceAssimilation,117,Voicing,0
4445,0.5,0,382,1,4358,n,A17KZPGCY7PACK,*NF,PlaceAssimilation,118,Place,1
4523,0.6,1,310,0,3582,d,A17MDKYW97KPKF,*DF,Devoicing,69,Voicing,1
4524,0.6,1,358,0,1180,n,A17MDKYW97KPKF,*NF,Devoicing,70,Place,1
4525,0.6,1,340,0,1070,b,A17MDKYW97KPKF,*DF,Devoicing,71,Voicing,1
4526,0.6,1,373,0,1590,ng,A17MDKYW97KPKF,*NF,Devoicing,72,Place,1
4527,0.6,1,334,0,2598,b,A17MDKYW97KPKF,*DF,Devoicing,73,Voicing,0
4528,0.6,0,355,0,1094,ng,A17MDKYW97KPKF,*NF,Devoicing,74,Place,0
4529,0.6,0,337,0,1110,b,A17MDKYW97KPKF,*DF,Devoicing,75,Voicing,0
4530,0.6,0,352,0,792,n,A17MDKYW97KPKF,*NF,Devoicing,76,Place,1
4531,0.6,1,298,0,574,d,A17MDKYW97KPKF,*DF,Devoicing,77,Voicing,1
4532,0.6,1,400,0,797,n,A17MDKYW97KPKF,*NF,Devoicing,78,Place,1
4534,0.6,0,370,0,807,n,A17MDKYW97KPKF,*NF,Devoicing,80,Place,0
4535,0.6,0,331,0,991,b,A17MDKYW97KPKF,*DF,Devoicing,81,Voicing,0
4536,0.6,1,349,0,847,ng,A17MDKYW97KPKF,*NF,Devoicing,82,Place,1
4539,0.6,1,295,0,774,d,A17MDKYW97KPKF,*DF,Devoicing,85,Voicing,1
4540,0.6,0,385,0,557,ng,A17MDKYW97KPKF,*NF,Devoicing,86,Place,0
4541,0.6,1,286,0,869,d,A17MDKYW97KPKF,*DF,Devoicing,87,Voicing,1
4542,0.6,1,388,0,630,n,A17MDKYW97KPKF,*NF,Devoicing,88,Place,1
4545,0.6,0,301,0,766,d,A17MDKYW97KPKF,*DF,Devoicing,91,Voicing,0
4546,0.6,1,346,0,1087,n,A17MDKYW97KPKF,*NF,Devoicing,92,Place,1
4547,0.6,0,307,0,1149,d,A17MDKYW97KPKF,*DF,Devoicing,93,Voicing,0
4549,0.6,0,328,0,2519,b,A17MDKYW97KPKF,*DF,Devoicing,95,Voicing,0
4550,0.6,0,364,0,798,n,A17MDKYW97KPKF,*NF,Devoicing,96,Place,0
4551,0.6,1,304,0,559,d,A17MDKYW97KPKF,*DF,Devoicing,97,Voicing,1
4552,0.6,1,382,0,1622,n,A17MDKYW97KPKF,*NF,Devoicing,98,Place,1
4553,0.6,0,325,0,943,b,A17MDKYW97KPKF,*DF,Devoicing,99,Voicing,0
4554,0.6,1,397,0,1142,ng,A17MDKYW97KPKF,*NF,Devoicing,100,Place,1
4556,0.6,1,394,0,1573,n,A17MDKYW97KPKF,*NF,Devoicing,102,Place,1
4557,0.6,1,313,0,2182,d,A17MDKYW97KPKF,*DF,Devoicing,103,Voicing,1
4558,0.6,0,361,0,1301,ng,A17MDKYW97KPKF,*NF,Devoicing,104,Place,0
4559,0.6,0,322,0,1413,b,A17MDKYW97KPKF,*DF,Devoicing,105,Voicing,0
4560,0.6,0,391,0,1369,ng,A17MDKYW97KPKF,*NF,Devoicing,106,Place,0
4561,0.6,0,292,0,1038,d,A17MDKYW97KPKF,*DF,Devoicing,107,Voicing,0
4562,0.6,0,376,0,559,n,A17MDKYW97KPKF,*NF,Devoicing,108,Place,0
4563,0.6,0,343,0,757,b,A17MDKYW97KPKF,*DF,Devoicing,109,Voicing,0
4564,0.6,1,379,0,574,ng,A17MDKYW97KPKF,*NF,Devoicing,110,Place,1
4565,0.6,0,319,0,654,b,A17MDKYW97KPKF,*DF,Devoicing,111,Voicing,0
4566,0.6,1,403,0,654,ng,A17MDKYW97KPKF,*NF,Devoicing,112,Place,1
4568,0.6,0,367,0,1029,ng,A17MDKYW97KPKF,*NF,Devoicing,114,Place,0
4569,0.6,1,316,0,582,b,A17MDKYW97KPKF,*DF,Devoicing,115,Voicing,1
4571,0.6,1,289,0,1382,d,A17MDKYW97KPKF,*DF,Devoicing,117,Voicing,1
4796,1.0,0,328,0,4684,b,A18THU3JHA6D6S,*DF,Devoicing,69,Voicing,1
4797,1.0,0,364,0,4038,n,A18THU3JHA6D6S,*NF,Devoicing,70,Place,1
4798,1.0,1,310,0,1871,d,A18THU3JHA6D6S,*DF,Devoicing,71,Voicing,0
4802,1.0,0,331,0,3647,b,A18THU3JHA6D6S,*DF,Devoicing,75,Voicing,0
4803,1.0,1,376,0,2615,n,A18THU3JHA6D6S,*NF,Devoicing,76,Place,1
4805,1.0,0,400,0,1887,n,A18THU3JHA6D6S,*NF,Devoicing,78,Place,0
4806,1.0,1,322,0,2048,b,A18THU3JHA6D6S,*DF,Devoicing,79,Voicing,1
4807,1.0,1,385,0,4574,ng,A18THU3JHA6D6S,*NF,Devoicing,80,Place,1
4808,1.0,1,313,0,2454,d,A18THU3JHA6D6S,*DF,Devoicing,81,Voicing,0
4809,1.0,1,361,0,2487,ng,A18THU3JHA6D6S,*NF,Devoicing,82,Place,1
4810,1.0,0,337,0,3111,b,A18THU3JHA6D6S,*DF,Devoicing,83,Voicing,0
4811,1.0,1,382,0,3335,n,A18THU3JHA6D6S,*NF,Devoicing,84,Place,1
4812,1.0,1,307,0,1559,d,A18THU3JHA6D6S,*DF,Devoicing,85,Voicing,1
4813,1.0,1,379,0,2063,ng,A18THU3JHA6D6S,*NF,Devoicing,86,Place,1
4815,1.0,1,373,0,1790,ng,A18THU3JHA6D6S,*NF,Devoicing,88,Place,1
4816,1.0,0,298,0,5654,d,A18THU3JHA6D6S,*DF,Devoicing,89,Voicing,0
4817,1.0,1,352,0,1942,n,A18THU3JHA6D6S,*NF,Devoicing,90,Place,1
4818,1.0,1,340,0,2039,b,A18THU3JHA6D6S,*DF,Devoicing,91,Voicing,1
4819,1.0,1,355,0,2047,ng,A18THU3JHA6D6S,*NF,Devoicing,92,Place,0
4823,1.0,1,397,0,2391,ng,A18THU3JHA6D6S,*NF,Devoicing,96,Place,0
4824,1.0,0,301,0,2287,d,A18THU3JHA6D6S,*DF,Devoicing,97,Voicing,0
4826,1.0,1,325,0,3775,b,A18THU3JHA6D6S,*DF,Devoicing,99,Voicing,1
4827,1.0,1,367,0,1703,ng,A18THU3JHA6D6S,*NF,Devoicing,100,Place,0
4828,1.0,0,316,0,4191,b,A18THU3JHA6D6S,*DF,Devoicing,101,Voicing,1
4829,1.0,1,403,0,1575,ng,A18THU3JHA6D6S,*NF,Devoicing,102,Place,0
4830,1.0,1,343,0,3518,b,A18THU3JHA6D6S,*DF,Devoicing,103,Voicing,1
4831,1.0,1,346,0,1703,n,A18THU3JHA6D6S,*NF,Devoicing,104,Place,1
4832,1.0,1,286,0,2222,d,A18THU3JHA6D6S,*DF,Devoicing,105,Voicing,0
4833,1.0,1,388,0,2631,n,A18THU3JHA6D6S,*NF,Devoicing,106,Place,0
4834,1.0,1,295,0,4567,d,A18THU3JHA6D6S,*DF,Devoicing,107,Voicing,1
4835,1.0,1,349,0,2455,ng,A18THU3JHA6D6S,*NF,Devoicing,108,Place,1
4836,1.0,1,319,0,2431,b,A18THU3JHA6D6S,*DF,Devoicing,109,Voicing,1
4837,1.0,1,391,0,1359,ng,A18THU3JHA6D6S,*NF,Devoicing,110,Place,1
4838,1.0,1,304,0,2703,d,A18THU3JHA6D6S,*DF,Devoicing,111,Voicing,1
4840,1.0,1,289,0,2878,d,A18THU3JHA6D6S,*DF,Devoicing,113,Voicing,0
4841,1.0,1,358,0,2038,n,A18THU3JHA6D6S,*NF,Devoicing,114,Place,1
4842,1.0,1,292,0,2758,d,A18THU3JHA6D6S,*DF,Devoicing,115,Voicing,1
4843,1.0,1,394,0,2367,n,A18THU3JHA6D6S,*NF,Devoicing,116,Place,1
4844,1.0,1,334,0,1775,b,A18THU3JHA6D6S,*DF,Devoicing,117,Voicing,1
4845,1.0,0,370,0,3135,n,A18THU3JHA6D6S,*NF,Devoicing,118,Place,1
5169,0.65,0,310,0,4836,d,A1922YIUI5MMUP,*DF,Devoicing,69,Voicing,0
5170,0.65,0,358,0,3933,n,A1922YIUI5MMUP,*NF,Devoicing,70,Place,1
5172,0.65,0,397,0,4881,ng,A1922YIUI5MMUP,*NF,Devoicing,72,Place,1
5173,0.65,0,295,0,3140,d,A1922YIUI5MMUP,*DF,Devoicing,73,Voicing,1
5174,0.65,0,376,0,2854,n,A1922YIUI5MMUP,*NF,Devoicing,74,Place,1
5175,0.65,0,334,0,4528,b,A1922YIUI5MMUP,*DF,Devoicing,75,Voicing,1
5177,0.65,0,322,0,3089,b,A1922YIUI5MMUP,*DF,Devoicing,77,Voicing,0
5178,0.65,1,349,0,2881,ng,A1922YIUI5MMUP,*NF,Devoicing,78,Place,0
5179,0.65,0,316,0,5430,b,A1922YIUI5MMUP,*DF,Devoicing,79,Voicing,1
5180,0.65,0,388,0,2589,n,A1922YIUI5MMUP,*NF,Devoicing,80,Place,1
5181,0.65,0,328,0,4488,b,A1922YIUI5MMUP,*DF,Devoicing,81,Voicing,1
5182,0.65,0,373,0,3457,ng,A1922YIUI5MMUP,*NF,Devoicing,82,Place,0
5183,0.65,1,307,0,2243,d,A1922YIUI5MMUP,*DF,Devoicing,83,Voicing,1
5184,0.65,0,367,0,5468,ng,A1922YIUI5MMUP,*NF,Devoicing,84,Place,0
5185,0.65,0,289,0,3066,d,A1922YIUI5MMUP,*DF,Devoicing,85,Voicing,1
5186,0.65,1,352,0,2511,n,A1922YIUI5MMUP,*NF,Devoicing,86,Place,0
5187,0.65,1,286,0,3077,d,A1922YIUI5MMUP,*DF,Devoicing,87,Voicing,1
5189,0.65,0,337,0,6433,b,A1922YIUI5MMUP,*DF,Devoicing,89,Voicing,0
5193,0.65,1,313,0,5909,d,A1922YIUI5MMUP,*DF,Devoicing,93,Voicing,1
5194,0.65,0,382,0,2706,n,A1922YIUI5MMUP,*NF,Devoicing,94,Place,1
5195,0.65,0,325,0,3225,b,A1922YIUI5MMUP,*DF,Devoicing,95,Voicing,1
5196,0.65,1,361,0,4120,ng,A1922YIUI5MMUP,*NF,Devoicing,96,Place,0
5197,0.65,1,301,0,2031,d,A1922YIUI5MMUP,*DF,Devoicing,97,Voicing,0
5198,0.65,0,346,0,3222,n,A1922YIUI5MMUP,*NF,Devoicing,98,Place,0
5200,0.65,1,403,0,3741,ng,A1922YIUI5MMUP,*NF,Devoicing,100,Place,1
5201,0.65,1,340,0,3621,b,A1922YIUI5MMUP,*DF,Devoicing,101,Voicing,1
5204,0.65,1,355,0,2274,ng,A1922YIUI5MMUP,*NF,Devoicing,104,Place,0
5205,0.65,0,319,0,2888,b,A1922YIUI5MMUP,*DF,Devoicing,105,Voicing,1
5206,0.65,1,394,0,2830,n,A1922YIUI5MMUP,*NF,Devoicing,106,Place,0
5207,0.65,0,331,0,4784,b,A1922YIUI5MMUP,*DF,Devoicing,107,Voicing,0
5208,0.65,0,370,0,2405,n,A1922YIUI5MMUP,*NF,Devoicing,108,Place,0
5209,0.65,1,298,0,5258,d,A1922YIUI5MMUP,*DF,Devoicing,109,Voicing,1
5210,0.65,1,364,0,3206,n,A1922YIUI5MMUP,*NF,Devoicing,110,Place,0
5212,0.65,1,400,0,2023,n,A1922YIUI5MMUP,*NF,Devoicing,112,Place,1
5213,0.65,0,292,0,7051,d,A1922YIUI5MMUP,*DF,Devoicing,113,Voicing,0
5214,0.65,1,379,0,2862,ng,A1922YIUI5MMUP,*NF,Devoicing,114,Place,0
5215,0.65,0,343,0,2486,b,A1922YIUI5MMUP,*DF,Devoicing,115,Voicing,1
5216,0.65,1,385,0,3686,ng,A1922YIUI5MMUP,*NF,Devoicing,116,Place,0
5217,0.65,0,304,0,6901,d,A1922YIUI5MMUP,*DF,Devoicing,117,Voicing,1
5218,0.65,1,391,0,2834,ng,A1922YIUI5MMUP,*NF,Devoicing,118,Place,1
5622,0.85,1,382,0,7994,n,A195MOXRMNHRVT,*NF,Devoicing,69,Place,0
5623,0.85,0,286,0,3592,d,A195MOXRMNHRVT,*DF,Devoicing,70,Voicing,1
5625,0.85,1,310,0,2270,d,A195MOXRMNHRVT,*DF,Devoicing,72,Voicing,1
5626,0.85,1,391,0,3320,ng,A195MOXRMNHRVT,*NF,Devoicing,73,Place,1
5627,0.85,0,292,0,2155,d,A195MOXRMNHRVT,*DF,Devoicing,74,Voicing,0
5629,0.85,1,334,0,2256,b,A195MOXRMNHRVT,*DF,Devoicing,76,Voicing,1
5630,0.85,1,361,0,2548,ng,A195MOXRMNHRVT,*NF,Devoicing,77,Place,0
5631,0.85,0,298,0,4674,d,A195MOXRMNHRVT,*DF,Devoicing,78,Voicing,1
5632,0.85,1,388,0,2461,n,A195MOXRMNHRVT,*NF,Devoicing,79,Place,0
5633,0.85,0,313,0,1889,d,A195MOXRMNHRVT,*DF,Devoicing,80,Voicing,1
5634,0.85,1,379,0,2255,ng,A195MOXRMNHRVT,*NF,Devoicing,81,Place,0
5636,0.85,1,397,0,4746,ng,A195MOXRMNHRVT,*NF,Devoicing,83,Place,1
5637,0.85,0,322,0,3573,b,A195MOXRMNHRVT,*DF,Devoicing,84,Voicing,0
5638,0.85,1,349,0,2428,ng,A195MOXRMNHRVT,*NF,Devoicing,85,Place,1
5641,0.85,0,328,0,2182,b,A195MOXRMNHRVT,*DF,Devoicing,88,Voicing,1
5642,0.85,0,352,0,4204,n,A195MOXRMNHRVT,*NF,Devoicing,89,Place,1
5643,0.85,0,340,0,1971,b,A195MOXRMNHRVT,*DF,Devoicing,90,Voicing,1
5644,0.85,1,373,0,4777,ng,A195MOXRMNHRVT,*NF,Devoicing,91,Place,1
5646,0.85,1,346,0,1995,n,A195MOXRMNHRVT,*NF,Devoicing,93,Place,1
5647,0.85,0,337,0,1977,b,A195MOXRMNHRVT,*DF,Devoicing,94,Voicing,0
5648,0.85,1,403,0,3153,ng,A195MOXRMNHRVT,*NF,Devoicing,95,Place,0
5649,0.85,1,295,0,2718,d,A195MOXRMNHRVT,*DF,Devoicing,96,Voicing,0
5650,0.85,1,385,0,2724,ng,A195MOXRMNHRVT,*NF,Devoicing,97,Place,1
5651,0.85,1,331,0,2106,b,A195MOXRMNHRVT,*DF,Devoicing,98,Voicing,1
5652,0.85,0,400,0,2292,n,A195MOXRMNHRVT,*NF,Devoicing,99,Place,0
5653,0.85,1,325,0,2057,b,A195MOXRMNHRVT,*DF,Devoicing,100,Voicing,1
5654,0.85,1,394,0,1792,n,A195MOXRMNHRVT,*NF,Devoicing,101,Place,1
5655,0.85,0,289,0,2091,d,A195MOXRMNHRVT,*DF,Devoicing,102,Voicing,0
5656,0.85,1,370,0,2076,n,A195MOXRMNHRVT,*NF,Devoicing,103,Place,1
5658,0.85,0,376,0,2486,n,A195MOXRMNHRVT,*NF,Devoicing,105,Place,0
5659,0.85,0,307,0,1632,d,A195MOXRMNHRVT,*DF,Devoicing,106,Voicing,0
5660,0.85,0,364,0,2267,n,A195MOXRMNHRVT,*NF,Devoicing,107,Place,1
5661,0.85,0,343,0,4673,b,A195MOXRMNHRVT,*DF,Devoicing,108,Voicing,0
5663,0.85,1,316,0,3492,b,A195MOXRMNHRVT,*DF,Devoicing,110,Voicing,1
5664,0.85,0,358,0,2005,n,A195MOXRMNHRVT,*NF,Devoicing,111,Place,1
5665,0.85,0,304,0,2691,d,A195MOXRMNHRVT,*DF,Devoicing,112,Voicing,0
5666,0.85,0,355,0,3788,ng,A195MOXRMNHRVT,*NF,Devoicing,113,Place,0
5668,0.85,1,367,0,1599,ng,A195MOXRMNHRVT,*NF,Devoicing,115,Place,1
5669,0.85,0,319,0,2491,b,A195MOXRMNHRVT,*DF,Devoicing,116,Voicing,0
5671,0.85,0,301,0,1925,d,A195MOXRMNHRVT,*DF,Devoicing,118,Voicing,1
5749,1.0,0,388,1,4609,n,A19KF02ULCISTQ,*NF,PlaceAssimilation,69,Place,0
5751,1.0,0,397,1,2854,ng,A19KF02ULCISTQ,*NF,PlaceAssimilation,71,Place,0
5752,1.0,1,310,1,4174,d,A19KF02ULCISTQ,*DF,PlaceAssimilation,72,Voicing,0
5754,1.0,1,292,1,2748,d,A19KF02ULCISTQ,*DF,PlaceAssimilation,74,Voicing,1
5755,1.0,0,394,1,3702,n,A19KF02ULCISTQ,*NF,PlaceAssimilation,75,Place,1
5756,1.0,0,328,1,3350,b,A19KF02ULCISTQ,*DF,PlaceAssimilation,76,Voicing,0
5757,1.0,1,355,1,3430,ng,A19KF02ULCISTQ,*NF,PlaceAssimilation,77,Place,0
5758,1.0,0,319,1,4974,b,A19KF02ULCISTQ,*DF,PlaceAssimilation,78,Voicing,1
5759,1.0,1,376,1,2878,n,A19KF02ULCISTQ,*NF,PlaceAssimilation,79,Place,0
5760,1.0,0,343,1,3366,b,A19KF02ULCISTQ,*DF,PlaceAssimilation,80,Voicing,1
5761,1.0,1,352,1,2726,n,A19KF02ULCISTQ,*NF,PlaceAssimilation,81,Place,0
5762,1.0,0,301,1,2934,d,A19KF02ULCISTQ,*DF,PlaceAssimilation,82,Voicing,1
5763,1.0,1,403,1,4949,ng,A19KF02ULCISTQ,*NF,PlaceAssimilation,83,Place,0
5764,1.0,0,316,1,2926,b,A19KF02ULCISTQ,*DF,PlaceAssimilation,84,Voicing,1
5765,1.0,1,385,1,3326,ng,A19KF02ULCISTQ,*NF,PlaceAssimilation,85,Place,0
5767,1.0,1,358,1,2982,n,A19KF02ULCISTQ,*NF,PlaceAssimilation,87,Place,1
5768,1.0,0,322,1,3668,b,A19KF02ULCISTQ,*DF,PlaceAssimilation,88,Voicing,1
5769,1.0,0,349,1,2462,ng,A19KF02ULCISTQ,*NF,PlaceAssimilation,89,Place,1
5770,1.0,1,298,1,3202,d,A19KF02ULCISTQ,*DF,PlaceAssimilation,90,Voicing,0
5771,1.0,0,364,1,2942,n,A19KF02ULCISTQ,*NF,PlaceAssimilation,91,Place,1
5772,1.0,0,331,1,2686,b,A19KF02ULCISTQ,*DF,PlaceAssimilation,92,Voicing,1
5773,1.0,1,400,1,3029,n,A19KF02ULCISTQ,*NF,PlaceAssimilation,93,Place,0
5775,1.0,1,379,1,3389,ng,A19KF02ULCISTQ,*NF,PlaceAssimilation,95,Place,0
5776,1.0,0,313,1,3110,d,A19KF02ULCISTQ,*DF,PlaceAssimilation,96,Voicing,1
5778,1.0,1,325,1,1926,b,A19KF02ULCISTQ,*DF,PlaceAssimilation,98,Voicing,0
5779,1.0,1,346,1,3062,n,A19KF02ULCISTQ,*NF,PlaceAssimilation,99,Place,0
5782,1.0,0,334,1,2967,b,A19KF02ULCISTQ,*DF,PlaceAssimilation,102,Voicing,1
5783,1.0,1,361,1,4958,ng,A19KF02ULCISTQ,*NF,PlaceAssimilation,103,Place,1
5784,1.0,0,307,1,2726,d,A19KF02ULCISTQ,*DF,PlaceAssimilation,104,Voicing,0
5786,1.0,0,286,1,2910,d,A19KF02ULCISTQ,*DF,PlaceAssimilation,106,Voicing,0
5787,1.0,0,382,1,2206,n,A19KF02ULCISTQ,*NF,PlaceAssimilation,107,Place,0
5788,1.0,0,295,1,2534,d,A19KF02ULCISTQ,*DF,PlaceAssimilation,108,Voicing,1
5790,1.0,0,340,1,1678,b,A19KF02ULCISTQ,*DF,PlaceAssimilation,110,Voicing,1
5791,1.0,1,370,1,3062,n,A19KF02ULCISTQ,*NF,PlaceAssimilation,111,Place,0
5793,1.0,0,391,1,2005,ng,A19KF02ULCISTQ,*NF,PlaceAssimilation,113,Place,1
5794,1.0,0,337,1,2327,b,A19KF02ULCISTQ,*DF,PlaceAssimilation,114,Voicing,1
5795,1.0,1,373,1,3335,ng,A19KF02ULCISTQ,*NF,PlaceAssimilation,115,Place,0
5796,1.0,1,289,1,3311,d,A19KF02ULCISTQ,*DF,PlaceAssimilation,116,Voicing,0
5797,1.0,0,367,1,1973,ng,A19KF02ULCISTQ,*NF,PlaceAssimilation,117,Place,1
5798,1.0,0,304,1,1990,d,A19KF02ULCISTQ,*DF,PlaceAssimilation,118,Voicing,1
5876,1.0,1,316,1,11863,b,A19RK7JV7FVCZX,*DF,PlaceAssimilation,69,Voicing,1
5877,1.0,0,394,1,6959,n,A19RK7JV7FVCZX,*NF,PlaceAssimilation,70,Place,0
5878,1.0,1,295,1,2806,d,A19RK7JV7FVCZX,*DF,PlaceAssimilation,71,Voicing,1
5879,1.0,1,361,1,5557,ng,A19RK7JV7FVCZX,*NF,PlaceAssimilation,72,Place,0
5881,1.0,1,370,1,3711,n,A19RK7JV7FVCZX,*NF,PlaceAssimilation,74,Place,0
5885,1.0,0,388,1,4119,n,A19RK7JV7FVCZX,*NF,PlaceAssimilation,78,Place,1
5886,1.0,1,310,1,2737,d,A19RK7JV7FVCZX,*DF,PlaceAssimilation,79,Voicing,0
5888,1.0,0,298,1,3065,d,A19RK7JV7FVCZX,*DF,PlaceAssimilation,81,Voicing,0
5889,1.0,1,358,1,3721,n,A19RK7JV7FVCZX,*NF,PlaceAssimilation,82,Place,1
5890,1.0,0,331,1,2360,b,A19RK7JV7FVCZX,*DF,PlaceAssimilation,83,Voicing,1
5891,1.0,1,403,1,3900,ng,A19RK7JV7FVCZX,*NF,PlaceAssimilation,84,Place,0
5892,1.0,0,286,1,3086,d,A19RK7JV7FVCZX,*DF,PlaceAssimilation,85,Voicing,1
5894,1.0,1,313,1,2927,d,A19RK7JV7FVCZX,*DF,PlaceAssimilation,87,Voicing,0
5895,1.0,0,376,1,5186,n,A19RK7JV7FVCZX,*NF,PlaceAssimilation,88,Place,0
5896,1.0,1,292,1,4351,d,A19RK7JV7FVCZX,*DF,PlaceAssimilation,89,Voicing,0
5897,1.0,0,382,1,2614,n,A19RK7JV7FVCZX,*NF,PlaceAssimilation,90,Place,1
5898,1.0,1,325,1,2540,b,A19RK7JV7FVCZX,*DF,PlaceAssimilation,91,Voicing,1
5899,1.0,0,349,1,4087,ng,A19RK7JV7FVCZX,*NF,PlaceAssimilation,92,Place,0
5900,1.0,1,322,1,5623,b,A19RK7JV7FVCZX,*DF,PlaceAssimilation,93,Voicing,1
5902,1.0,0,304,1,3232,d,A19RK7JV7FVCZX,*DF,PlaceAssimilation,95,Voicing,1
5903,1.0,1,346,1,3970,n,A19RK7JV7FVCZX,*NF,PlaceAssimilation,96,Place,1
5904,1.0,0,337,1,3408,b,A19RK7JV7FVCZX,*DF,PlaceAssimilation,97,Voicing,0
5905,1.0,1,373,1,4724,ng,A19RK7JV7FVCZX,*NF,PlaceAssimilation,98,Place,1
5906,1.0,0,328,1,2507,b,A19RK7JV7FVCZX,*DF,PlaceAssimilation,99,Voicing,0
5907,1.0,1,364,1,6442,n,A19RK7JV7FVCZX,*NF,PlaceAssimilation,100,Place,1
5909,1.0,1,391,1,3854,ng,A19RK7JV7FVCZX,*NF,PlaceAssimilation,102,Place,0
5910,1.0,1,301,1,2677,d,A19RK7JV7FVCZX,*DF,PlaceAssimilation,103,Voicing,1
5913,1.0,0,400,1,2755,n,A19RK7JV7FVCZX,*NF,PlaceAssimilation,106,Place,0
5914,1.0,1,307,1,3094,d,A19RK7JV7FVCZX,*DF,PlaceAssimilation,107,Voicing,0
5915,1.0,0,397,1,2806,ng,A19RK7JV7FVCZX,*NF,PlaceAssimilation,108,Place,1
5916,1.0,0,289,1,2576,d,A19RK7JV7FVCZX,*DF,PlaceAssimilation,109,Voicing,1
5917,1.0,1,379,1,2876,ng,A19RK7JV7FVCZX,*NF,PlaceAssimilation,110,Place,0
5918,1.0,1,334,1,6114,b,A19RK7JV7FVCZX,*DF,PlaceAssimilation,111,Voicing,1
5919,1.0,1,367,1,2458,ng,A19RK7JV7FVCZX,*NF,PlaceAssimilation,112,Place,1
5920,1.0,0,343,1,5955,b,A19RK7JV7FVCZX,*DF,PlaceAssimilation,113,Voicing,0
5921,1.0,1,352,1,2707,n,A19RK7JV7FVCZX,*NF,PlaceAssimilation,114,Place,0
5922,1.0,1,319,1,2872,b,A19RK7JV7FVCZX,*DF,PlaceAssimilation,115,Voicing,0
5923,1.0,1,385,1,3174,ng,A19RK7JV7FVCZX,*NF,PlaceAssimilation,116,Place,1
5924,1.0,1,340,1,2528,b,A19RK7JV7FVCZX,*DF,PlaceAssimilation,117,Voicing,0
5925,1.0,0,355,1,2903,ng,A19RK7JV7FVCZX,*NF,PlaceAssimilation,118,Place,0
6003,0.5,1,325,0,6401,b,A1A1A9UHNQCI9Y,*DF,Devoicing,69,Voicing,0
6006,0.5,0,400,0,2052,n,A1A1A9UHNQCI9Y,*NF,Devoicing,72,Place,0
6007,0.5,1,301,0,2162,d,A1A1A9UHNQCI9Y,*DF,Devoicing,73,Voicing,0
6008,0.5,1,346,0,2373,n,A1A1A9UHNQCI9Y,*NF,Devoicing,74,Place,1
6009,0.5,0,319,0,1542,b,A1A1A9UHNQCI9Y,*DF,Devoicing,75,Voicing,1
6010,0.5,0,370,0,3470,n,A1A1A9UHNQCI9Y,*NF,Devoicing,76,Place,0
6011,0.5,0,343,0,3183,b,A1A1A9UHNQCI9Y,*DF,Devoicing,77,Voicing,1
6012,0.5,0,397,0,1956,ng,A1A1A9UHNQCI9Y,*NF,Devoicing,78,Place,0
6013,0.5,0,340,0,1832,b,A1A1A9UHNQCI9Y,*DF,Devoicing,79,Voicing,1
6014,0.5,0,394,0,1978,n,A1A1A9UHNQCI9Y,*NF,Devoicing,80,Place,1
6017,0.5,0,334,0,1799,b,A1A1A9UHNQCI9Y,*DF,Devoicing,83,Voicing,0
6021,0.5,0,298,0,1746,d,A1A1A9UHNQCI9Y,*DF,Devoicing,87,Voicing,0
6022,0.5,1,358,0,1388,n,A1A1A9UHNQCI9Y,*NF,Devoicing,88,Place,1
6023,0.5,0,310,0,1746,d,A1A1A9UHNQCI9Y,*DF,Devoicing,89,Voicing,1
6025,0.5,0,313,0,2299,d,A1A1A9UHNQCI9Y,*DF,Devoicing,91,Voicing,0
6026,0.5,1,391,0,1676,ng,A1A1A9UHNQCI9Y,*NF,Devoicing,92,Place,0
6027,0.5,1,337,0,1439,b,A1A1A9UHNQCI9Y,*DF,Devoicing,93,Voicing,1
6028,0.5,0,379,0,1314,ng,A1A1A9UHNQCI9Y,*NF,Devoicing,94,Place,1
6029,0.5,0,289,0,1581,d,A1A1A9UHNQCI9Y,*DF,Devoicing,95,Voicing,0
6030,0.5,0,388,0,2429,n,A1A1A9UHNQCI9Y,*NF,Devoicing,96,Place,1
6031,0.5,1,307,0,2728,d,A1A1A9UHNQCI9Y,*DF,Devoicing,97,Voicing,1
6032,0.5,0,382,0,2753,n,A1A1A9UHNQCI9Y,*NF,Devoicing,98,Place,0
6033,0.5,1,316,0,3821,b,A1A1A9UHNQCI9Y,*DF,Devoicing,99,Voicing,1
6034,0.5,1,376,0,2123,n,A1A1A9UHNQCI9Y,*NF,Devoicing,100,Place,0
6035,0.5,0,286,0,1950,d,A1A1A9UHNQCI9Y,*DF,Devoicing,101,Voicing,0
6036,0.5,0,361,0,2341,ng,A1A1A9UHNQCI9Y,*NF,Devoicing,102,Place,1
6037,0.5,0,328,0,2615,b,A1A1A9UHNQCI9Y,*DF,Devoicing,103,Voicing,1
6038,0.5,0,385,0,1465,ng,A1A1A9UHNQCI9Y,*NF,Devoicing,104,Place,0
6039,0.5,0,292,0,1940,d,A1A1A9UHNQCI9Y,*DF,Devoicing,105,Voicing,1
6040,0.5,0,355,0,1669,ng,A1A1A9UHNQCI9Y,*NF,Devoicing,106,Place,0
6042,0.5,1,364,0,2188,n,A1A1A9UHNQCI9Y,*NF,Devoicing,108,Place,1
6043,0.5,0,331,0,1488,b,A1A1A9UHNQCI9Y,*DF,Devoicing,109,Voicing,0
6044,0.5,0,352,0,1324,n,A1A1A9UHNQCI9Y,*NF,Devoicing,110,Place,1
6045,0.5,0,295,0,1879,d,A1A1A9UHNQCI9Y,*DF,Devoicing,111,Voicing,0
6046,0.5,0,403,0,1942,ng,A1A1A9UHNQCI9Y,*NF,Devoicing,112,Place,0
6047,0.5,0,304,0,1989,d,A1A1A9UHNQCI9Y,*DF,Devoicing,113,Voicing,0
6048,0.5,0,367,0,1728,ng,A1A1A9UHNQCI9Y,*NF,Devoicing,114,Place,0
6050,0.5,0,373,0,3080,ng,A1A1A9UHNQCI9Y,*NF,Devoicing,116,Place,1
6051,0.5,1,322,0,2519,b,A1A1A9UHNQCI9Y,*DF,Devoicing,117,Voicing,1
6052,0.5,0,349,0,1978,ng,A1A1A9UHNQCI9Y,*NF,Devoicing,118,Place,0
6131,1.0,1,286,0,3704,d,A1AKJVWOCX77GF,*DF,Devoicing,70,Voicing,0
6132,1.0,0,370,0,6638,n,A1AKJVWOCX77GF,*NF,Devoicing,71,Place,1
6133,1.0,1,292,0,3657,d,A1AKJVWOCX77GF,*DF,Devoicing,72,Voicing,0
6134,1.0,1,403,0,2754,ng,A1AKJVWOCX77GF,*NF,Devoicing,73,Place,0
6135,1.0,1,343,0,3990,b,A1AKJVWOCX77GF,*DF,Devoicing,74,Voicing,0
6136,1.0,1,367,0,2552,ng,A1AKJVWOCX77GF,*NF,Devoicing,75,Place,0
6137,1.0,0,337,0,6016,b,A1AKJVWOCX77GF,*DF,Devoicing,76,Voicing,1
6138,1.0,1,391,0,4666,ng,A1AKJVWOCX77GF,*NF,Devoicing,77,Place,1
6140,1.0,1,364,0,2840,n,A1AKJVWOCX77GF,*NF,Devoicing,79,Place,0
6141,1.0,1,328,0,9940,b,A1AKJVWOCX77GF,*DF,Devoicing,80,Voicing,0
6142,1.0,0,358,0,3040,n,A1AKJVWOCX77GF,*NF,Devoicing,81,Place,1
6144,1.0,0,376,0,2226,n,A1AKJVWOCX77GF,*NF,Devoicing,83,Place,1
6145,1.0,1,304,0,2142,d,A1AKJVWOCX77GF,*DF,Devoicing,84,Voicing,1
6146,1.0,1,385,0,2803,ng,A1AKJVWOCX77GF,*NF,Devoicing,85,Place,0
6147,1.0,1,307,0,3419,d,A1AKJVWOCX77GF,*DF,Devoicing,86,Voicing,1
6148,1.0,0,400,0,3064,n,A1AKJVWOCX77GF,*NF,Devoicing,87,Place,0
6149,1.0,0,331,0,4835,b,A1AKJVWOCX77GF,*DF,Devoicing,88,Voicing,0
6150,1.0,1,397,0,2587,ng,A1AKJVWOCX77GF,*NF,Devoicing,89,Place,1
6151,1.0,0,334,0,4306,b,A1AKJVWOCX77GF,*DF,Devoicing,90,Voicing,0
6152,1.0,1,352,0,3134,n,A1AKJVWOCX77GF,*NF,Devoicing,91,Place,0
6154,1.0,1,382,0,1846,n,A1AKJVWOCX77GF,*NF,Devoicing,93,Place,1
6155,1.0,1,316,0,6279,b,A1AKJVWOCX77GF,*DF,Devoicing,94,Voicing,0
6156,1.0,0,388,0,2753,n,A1AKJVWOCX77GF,*NF,Devoicing,95,Place,1
6159,1.0,1,295,0,2152,d,A1AKJVWOCX77GF,*DF,Devoicing,98,Voicing,1
6160,1.0,1,349,0,2329,ng,A1AKJVWOCX77GF,*NF,Devoicing,99,Place,1
6161,1.0,1,289,0,3269,d,A1AKJVWOCX77GF,*DF,Devoicing,100,Voicing,1
6162,1.0,1,373,0,3337,ng,A1AKJVWOCX77GF,*NF,Devoicing,101,Place,0
6163,1.0,1,340,0,4132,b,A1AKJVWOCX77GF,*DF,Devoicing,102,Voicing,0
6165,1.0,1,310,0,3434,d,A1AKJVWOCX77GF,*DF,Devoicing,104,Voicing,0
6166,1.0,0,346,0,3118,n,A1AKJVWOCX77GF,*NF,Devoicing,105,Place,1
6167,1.0,1,313,0,3820,d,A1AKJVWOCX77GF,*DF,Devoicing,106,Voicing,0
6168,1.0,1,361,0,2278,ng,A1AKJVWOCX77GF,*NF,Devoicing,107,Place,0
6169,1.0,0,319,0,5040,b,A1AKJVWOCX77GF,*DF,Devoicing,108,Voicing,1
6171,1.0,1,301,0,2205,d,A1AKJVWOCX77GF,*DF,Devoicing,110,Voicing,1
6173,1.0,1,298,0,3068,d,A1AKJVWOCX77GF,*DF,Devoicing,112,Voicing,0
6174,1.0,0,394,0,2261,n,A1AKJVWOCX77GF,*NF,Devoicing,113,Place,1
6176,1.0,1,379,0,2418,ng,A1AKJVWOCX77GF,*NF,Devoicing,115,Place,1
6177,1.0,1,322,0,2902,b,A1AKJVWOCX77GF,*DF,Devoicing,116,Voicing,0
6178,1.0,0,355,0,2258,ng,A1AKJVWOCX77GF,*NF,Devoicing,117,Place,1
6179,1.0,0,325,0,3294,b,A1AKJVWOCX77GF,*DF,Devoicing,118,Voicing,1
6259,0.5,1,316,1,2428,b,A1AP4U73VRD8V1,*DF,PlaceAssimilation,71,Voicing,1
6260,0.5,0,355,1,1499,ng,A1AP4U73VRD8V1,*NF,PlaceAssimilation,72,Place,1
6261,0.5,1,295,1,1431,d,A1AP4U73VRD8V1,*DF,PlaceAssimilation,73,Voicing,1
6263,0.5,1,313,1,1867,d,A1AP4U73VRD8V1,*DF,PlaceAssimilation,75,Voicing,0
6264,0.5,0,364,1,2687,n,A1AP4U73VRD8V1,*NF,PlaceAssimilation,76,Place,0
6266,0.5,0,385,1,1699,ng,A1AP4U73VRD8V1,*NF,PlaceAssimilation,78,Place,1
6267,0.5,1,310,1,1466,d,A1AP4U73VRD8V1,*DF,PlaceAssimilation,79,Voicing,1
6268,0.5,0,391,1,1269,ng,A1AP4U73VRD8V1,*NF,PlaceAssimilation,80,Place,0
6270,0.5,0,376,1,1437,n,A1AP4U73VRD8V1,*NF,PlaceAssimilation,82,Place,1
6271,0.5,0,334,1,822,b,A1AP4U73VRD8V1,*DF,PlaceAssimilation,83,Voicing,0
6272,0.5,1,367,1,971,ng,A1AP4U73VRD8V1,*NF,PlaceAssimilation,84,Place,0
6273,0.5,0,325,1,1785,b,A1AP4U73VRD8V1,*DF,PlaceAssimilation,85,Voicing,0
6274,0.5,1,397,1,1338,ng,A1AP4U73VRD8V1,*NF,PlaceAssimilation,86,Place,0
6275,0.5,0,307,1,1401,d,A1AP4U73VRD8V1,*DF,PlaceAssimilation,87,Voicing,1
6276,0.5,1,346,1,1757,n,A1AP4U73VRD8V1,*NF,PlaceAssimilation,88,Place,0
6277,0.5,0,343,1,1765,b,A1AP4U73VRD8V1,*DF,PlaceAssimilation,89,Voicing,0
6278,0.5,0,358,1,1203,n,A1AP4U73VRD8V1,*NF,PlaceAssimilation,90,Place,1
6279,0.5,1,298,1,1534,d,A1AP4U73VRD8V1,*DF,PlaceAssimilation,91,Voicing,1
6280,0.5,1,370,1,1727,n,A1AP4U73VRD8V1,*NF,PlaceAssimilation,92,Place,0
6283,0.5,1,301,1,1374,d,A1AP4U73VRD8V1,*DF,PlaceAssimilation,95,Voicing,0
6284,0.5,1,400,1,1395,n,A1AP4U73VRD8V1,*NF,PlaceAssimilation,96,Place,1
6285,0.5,1,319,1,1460,b,A1AP4U73VRD8V1,*DF,PlaceAssimilation,97,Voicing,0
6286,0.5,0,361,1,2021,ng,A1AP4U73VRD8V1,*NF,PlaceAssimilation,98,Place,0
6287,0.5,1,328,1,1283,b,A1AP4U73VRD8V1,*DF,PlaceAssimilation,99,Voicing,1
6288,0.5,0,394,1,901,n,A1AP4U73VRD8V1,*NF,PlaceAssimilation,100,Place,1
6289,0.5,1,289,1,893,d,A1AP4U73VRD8V1,*DF,PlaceAssimilation,101,Voicing,1
6291,0.5,1,340,1,737,b,A1AP4U73VRD8V1,*DF,PlaceAssimilation,103,Voicing,0
6293,0.5,1,286,1,1458,d,A1AP4U73VRD8V1,*DF,PlaceAssimilation,105,Voicing,0
6294,0.5,0,373,1,952,ng,A1AP4U73VRD8V1,*NF,PlaceAssimilation,106,Place,0
6296,0.5,1,382,1,1366,n,A1AP4U73VRD8V1,*NF,PlaceAssimilation,108,Place,0
6297,0.5,1,337,1,1336,b,A1AP4U73VRD8V1,*DF,PlaceAssimilation,109,Voicing,0
6298,0.5,0,379,1,1833,ng,A1AP4U73VRD8V1,*NF,PlaceAssimilation,110,Place,1
6299,0.5,1,304,1,1278,d,A1AP4U73VRD8V1,*DF,PlaceAssimilation,111,Voicing,1
6300,0.5,0,349,1,1408,ng,A1AP4U73VRD8V1,*NF,PlaceAssimilation,112,Place,0
6301,0.5,1,292,1,1498,d,A1AP4U73VRD8V1,*DF,PlaceAssimilation,113,Voicing,1
6302,0.5,1,352,1,1372,n,A1AP4U73VRD8V1,*NF,PlaceAssimilation,114,Place,0
6303,0.5,1,322,1,1758,b,A1AP4U73VRD8V1,*DF,PlaceAssimilation,115,Voicing,1
6304,0.5,1,388,1,1810,n,A1AP4U73VRD8V1,*NF,PlaceAssimilation,116,Place,1
6305,0.5,0,331,1,2024,b,A1AP4U73VRD8V1,*DF,PlaceAssimilation,117,Voicing,1
6306,0.5,1,403,1,3127,ng,A1AP4U73VRD8V1,*NF,PlaceAssimilation,118,Place,0
7033,0.7,1,292,0,2971,d,A1CH9HKVGMO2JU,*DF,Devoicing,70,Voicing,1
7034,0.7,1,388,0,5398,n,A1CH9HKVGMO2JU,*NF,Devoicing,71,Place,0
7036,0.7,1,352,0,2975,n,A1CH9HKVGMO2JU,*NF,Devoicing,73,Place,1
7037,0.7,1,322,0,5102,b,A1CH9HKVGMO2JU,*DF,Devoicing,74,Voicing,1
7038,0.7,1,394,0,3386,n,A1CH9HKVGMO2JU,*NF,Devoicing,75,Place,0
7039,0.7,1,337,0,3886,b,A1CH9HKVGMO2JU,*DF,Devoicing,76,Voicing,1
7040,0.7,1,349,0,2157,ng,A1CH9HKVGMO2JU,*NF,Devoicing,77,Place,1
7043,0.7,1,313,0,2066,d,A1CH9HKVGMO2JU,*DF,Devoicing,80,Voicing,1
7044,0.7,1,373,0,2347,ng,A1CH9HKVGMO2JU,*NF,Devoicing,81,Place,0
7045,0.7,1,316,0,2041,b,A1CH9HKVGMO2JU,*DF,Devoicing,82,Voicing,1
7046,0.7,1,370,0,2242,n,A1CH9HKVGMO2JU,*NF,Devoicing,83,Place,1
7047,0.7,1,340,0,1678,b,A1CH9HKVGMO2JU,*DF,Devoicing,84,Voicing,1
7048,0.7,0,391,0,2609,ng,A1CH9HKVGMO2JU,*NF,Devoicing,85,Place,0
7049,0.7,1,301,0,1578,d,A1CH9HKVGMO2JU,*DF,Devoicing,86,Voicing,0
7052,0.7,1,346,0,3093,n,A1CH9HKVGMO2JU,*NF,Devoicing,89,Place,0
7055,0.7,0,307,0,1882,d,A1CH9HKVGMO2JU,*DF,Devoicing,92,Voicing,0
7056,0.7,0,358,0,2230,n,A1CH9HKVGMO2JU,*NF,Devoicing,93,Place,0
7057,0.7,1,295,0,1641,d,A1CH9HKVGMO2JU,*DF,Devoicing,94,Voicing,0
7058,0.7,1,364,0,2131,n,A1CH9HKVGMO2JU,*NF,Devoicing,95,Place,1
7059,0.7,1,286,0,1674,d,A1CH9HKVGMO2JU,*DF,Devoicing,96,Voicing,1
7060,0.7,1,361,0,1902,ng,A1CH9HKVGMO2JU,*NF,Devoicing,97,Place,1
7061,0.7,0,343,0,2035,b,A1CH9HKVGMO2JU,*DF,Devoicing,98,Voicing,1
7062,0.7,1,400,0,5845,n,A1CH9HKVGMO2JU,*NF,Devoicing,99,Place,1
7063,0.7,1,304,0,8526,d,A1CH9HKVGMO2JU,*DF,Devoicing,100,Voicing,1
7064,0.7,0,403,0,3353,ng,A1CH9HKVGMO2JU,*NF,Devoicing,101,Place,1
7065,0.7,0,289,0,2987,d,A1CH9HKVGMO2JU,*DF,Devoicing,102,Voicing,1
7067,0.7,0,298,0,2704,d,A1CH9HKVGMO2JU,*DF,Devoicing,104,Voicing,0
7068,0.7,1,385,0,2847,ng,A1CH9HKVGMO2JU,*NF,Devoicing,105,Place,1
7070,0.7,1,355,0,1310,ng,A1CH9HKVGMO2JU,*NF,Devoicing,107,Place,1
7071,0.7,1,319,0,2712,b,A1CH9HKVGMO2JU,*DF,Devoicing,108,Voicing,1
7072,0.7,0,376,0,2115,n,A1CH9HKVGMO2JU,*NF,Devoicing,109,Place,0
7073,0.7,1,331,0,3502,b,A1CH9HKVGMO2JU,*DF,Devoicing,110,Voicing,1
7074,0.7,0,382,0,2694,n,A1CH9HKVGMO2JU,*NF,Devoicing,111,Place,1
7075,0.7,1,325,0,4614,b,A1CH9HKVGMO2JU,*DF,Devoicing,112,Voicing,1
7076,0.7,1,379,0,3615,ng,A1CH9HKVGMO2JU,*NF,Devoicing,113,Place,0
7077,0.7,0,334,0,1860,b,A1CH9HKVGMO2JU,*DF,Devoicing,114,Voicing,0
7078,0.7,1,367,0,1817,ng,A1CH9HKVGMO2JU,*NF,Devoicing,115,Place,1
7079,0.7,0,328,0,1597,b,A1CH9HKVGMO2JU,*DF,Devoicing,116,Voicing,0
7080,0.7,0,397,0,2895,ng,A1CH9HKVGMO2JU,*NF,Devoicing,117,Place,0
7081,0.7,1,310,0,2019,d,A1CH9HKVGMO2JU,*DF,Devoicing,118,Voicing,0
7159,0.8,1,331,1,5821,b,A1DAJB3LE0M0EM,*DF,PlaceAssimilation,69,Voicing,1
7160,0.8,0,376,1,1831,n,A1DAJB3LE0M0EM,*NF,PlaceAssimilation,70,Place,1
7161,0.8,0,307,1,1844,d,A1DAJB3LE0M0EM,*DF,PlaceAssimilation,71,Voicing,1
7162,0.8,1,385,1,2840,ng,A1DAJB3LE0M0EM,*NF,PlaceAssimilation,72,Place,1
7163,0.8,0,340,1,2407,b,A1DAJB3LE0M0EM,*DF,PlaceAssimilation,73,Voicing,0
7164,0.8,0,346,1,1577,n,A1DAJB3LE0M0EM,*NF,PlaceAssimilation,74,Place,0
7166,0.8,1,379,1,1544,ng,A1DAJB3LE0M0EM,*NF,PlaceAssimilation,76,Place,1
7167,0.8,0,304,1,2255,d,A1DAJB3LE0M0EM,*DF,PlaceAssimilation,77,Voicing,0
7170,0.8,0,394,1,1771,n,A1DAJB3LE0M0EM,*NF,PlaceAssimilation,80,Place,1
7172,0.8,1,352,1,1493,n,A1DAJB3LE0M0EM,*NF,PlaceAssimilation,82,Place,1
7173,0.8,1,310,1,5689,d,A1DAJB3LE0M0EM,*DF,PlaceAssimilation,83,Voicing,1
7175,0.8,0,343,1,1105,b,A1DAJB3LE0M0EM,*DF,PlaceAssimilation,85,Voicing,1
7177,0.8,0,289,1,637,d,A1DAJB3LE0M0EM,*DF,PlaceAssimilation,87,Voicing,0
7179,0.8,0,298,1,784,d,A1DAJB3LE0M0EM,*DF,PlaceAssimilation,89,Voicing,1
7180,0.8,1,373,1,918,ng,A1DAJB3LE0M0EM,*NF,PlaceAssimilation,90,Place,0
7182,0.8,0,361,1,958,ng,A1DAJB3LE0M0EM,*NF,PlaceAssimilation,92,Place,0
7183,0.8,0,292,1,1176,d,A1DAJB3LE0M0EM,*DF,PlaceAssimilation,93,Voicing,0
7184,0.8,0,364,1,1550,n,A1DAJB3LE0M0EM,*NF,PlaceAssimilation,94,Place,1
7185,0.8,0,295,1,1271,d,A1DAJB3LE0M0EM,*DF,PlaceAssimilation,95,Voicing,0
7186,0.8,0,388,1,1014,n,A1DAJB3LE0M0EM,*NF,PlaceAssimilation,96,Place,0
7188,0.8,0,397,1,928,ng,A1DAJB3LE0M0EM,*NF,PlaceAssimilation,98,Place,0
7189,0.8,0,334,1,896,b,A1DAJB3LE0M0EM,*DF,PlaceAssimilation,99,Voicing,1
7190,0.8,0,403,1,958,ng,A1DAJB3LE0M0EM,*NF,PlaceAssimilation,100,Place,1
7191,0.8,1,325,1,854,b,A1DAJB3LE0M0EM,*DF,PlaceAssimilation,101,Voicing,1
7193,0.8,0,322,1,817,b,A1DAJB3LE0M0EM,*DF,PlaceAssimilation,103,Voicing,0
7194,0.8,0,355,1,808,ng,A1DAJB3LE0M0EM,*NF,PlaceAssimilation,104,Place,0
7195,0.8,1,319,1,853,b,A1DAJB3LE0M0EM,*DF,PlaceAssimilation,105,Voicing,1
7196,0.8,1,358,1,815,n,A1DAJB3LE0M0EM,*NF,PlaceAssimilation,106,Place,1
7197,0.8,0,337,1,974,b,A1DAJB3LE0M0EM,*DF,PlaceAssimilation,107,Voicing,0
7198,0.8,0,367,1,1059,ng,A1DAJB3LE0M0EM,*NF,PlaceAssimilation,108,Place,0
7199,0.8,0,313,1,1039,d,A1DAJB3LE0M0EM,*DF,PlaceAssimilation,109,Voicing,1
7200,0.8,1,370,1,1019,n,A1DAJB3LE0M0EM,*NF,PlaceAssimilation,110,Place,1
7201,0.8,0,328,1,828,b,A1DAJB3LE0M0EM,*DF,PlaceAssimilation,111,Voicing,0
7202,0.8,0,400,1,820,n,A1DAJB3LE0M0EM,*NF,PlaceAssimilation,112,Place,0
7203,0.8,0,301,1,777,d,A1DAJB3LE0M0EM,*DF,PlaceAssimilation,113,Voicing,0
7204,0.8,1,391,1,789,ng,A1DAJB3LE0M0EM,*NF,PlaceAssimilation,114,Place,1
7205,0.8,0,316,1,758,b,A1DAJB3LE0M0EM,*DF,PlaceAssimilation,115,Voicing,1
7206,0.8,1,382,1,859,n,A1DAJB3LE0M0EM,*NF,PlaceAssimilation,116,Place,0
7207,0.8,1,286,1,817,d,A1DAJB3LE0M0EM,*DF,PlaceAssimilation,117,Voicing,1
7208,0.8,0,349,1,820,ng,A1DAJB3LE0M0EM,*NF,PlaceAssimilation,118,Place,0
7286,0.5,1,295,1,4253,d,A1E9RAXPMZ2CMG,*DF,PlaceAssimilation,69,Voicing,1
7288,0.5,0,337,1,4494,b,A1E9RAXPMZ2CMG,*DF,PlaceAssimilation,71,Voicing,0
7289,0.5,0,364,1,1806,n,A1E9RAXPMZ2CMG,*NF,PlaceAssimilation,72,Place,1
7290,0.5,1,301,1,1935,d,A1E9RAXPMZ2CMG,*DF,PlaceAssimilation,73,Voicing,0
7292,0.5,1,298,1,1941,d,A1E9RAXPMZ2CMG,*DF,PlaceAssimilation,75,Voicing,1
7293,0.5,1,352,1,2774,n,A1E9RAXPMZ2CMG,*NF,PlaceAssimilation,76,Place,0
7294,0.5,1,313,1,2174,d,A1E9RAXPMZ2CMG,*DF,PlaceAssimilation,77,Voicing,0
7296,0.5,1,307,1,2269,d,A1E9RAXPMZ2CMG,*DF,PlaceAssimilation,79,Voicing,1
7297,0.5,1,376,1,3219,n,A1E9RAXPMZ2CMG,*NF,PlaceAssimilation,80,Place,1
7299,0.5,1,346,1,2800,n,A1E9RAXPMZ2CMG,*NF,PlaceAssimilation,82,Place,1
7300,0.5,0,340,1,2373,b,A1E9RAXPMZ2CMG,*DF,PlaceAssimilation,83,Voicing,1
7301,0.5,1,397,1,1549,ng,A1E9RAXPMZ2CMG,*NF,PlaceAssimilation,84,Place,1
7302,0.5,0,334,1,2926,b,A1E9RAXPMZ2CMG,*DF,PlaceAssimilation,85,Voicing,1
7303,0.5,0,349,1,2494,ng,A1E9RAXPMZ2CMG,*NF,PlaceAssimilation,86,Place,0
7304,0.5,1,325,1,2723,b,A1E9RAXPMZ2CMG,*DF,PlaceAssimilation,87,Voicing,0
7305,0.5,1,379,1,2383,ng,A1E9RAXPMZ2CMG,*NF,PlaceAssimilation,88,Place,1
7306,0.5,0,292,1,1357,d,A1E9RAXPMZ2CMG,*DF,PlaceAssimilation,89,Voicing,1
7307,0.5,1,391,1,3332,ng,A1E9RAXPMZ2CMG,*NF,PlaceAssimilation,90,Place,0
7308,0.5,1,310,1,2502,d,A1E9RAXPMZ2CMG,*DF,PlaceAssimilation,91,Voicing,1
7309,0.5,1,382,1,2238,n,A1E9RAXPMZ2CMG,*NF,PlaceAssimilation,92,Place,1
7310,0.5,1,286,1,2500,d,A1E9RAXPMZ2CMG,*DF,PlaceAssimilation,93,Voicing,0
7311,0.5,1,400,1,2470,n,A1E9RAXPMZ2CMG,*NF,PlaceAssimilation,94,Place,0
7312,0.5,0,331,1,2861,b,A1E9RAXPMZ2CMG,*DF,PlaceAssimilation,95,Voicing,1
7313,0.5,0,361,1,2862,ng,A1E9RAXPMZ2CMG,*NF,PlaceAssimilation,96,Place,1
7315,0.5,0,358,1,3494,n,A1E9RAXPMZ2CMG,*NF,PlaceAssimilation,98,Place,1
7316,0.5,0,328,1,1644,b,A1E9RAXPMZ2CMG,*DF,PlaceAssimilation,99,Voicing,0
7317,0.5,0,385,1,2175,ng,A1E9RAXPMZ2CMG,*NF,PlaceAssimilation,100,Place,0
7319,0.5,1,394,1,1685,n,A1E9RAXPMZ2CMG,*NF,PlaceAssimilation,102,Place,0
7320,0.5,0,322,1,1742,b,A1E9RAXPMZ2CMG,*DF,PlaceAssimilation,103,Voicing,1
7321,0.5,1,355,1,1910,ng,A1E9RAXPMZ2CMG,*NF,PlaceAssimilation,104,Place,1
7323,0.5,1,370,1,4222,n,A1E9RAXPMZ2CMG,*NF,PlaceAssimilation,106,Place,0
7324,0.5,0,319,1,3630,b,A1E9RAXPMZ2CMG,*DF,PlaceAssimilation,107,Voicing,1
7326,0.5,1,289,1,1846,d,A1E9RAXPMZ2CMG,*DF,PlaceAssimilation,109,Voicing,0
7327,0.5,0,367,1,2990,ng,A1E9RAXPMZ2CMG,*NF,PlaceAssimilation,110,Place,0
7328,0.5,0,343,1,1838,b,A1E9RAXPMZ2CMG,*DF,PlaceAssimilation,111,Voicing,0
7329,0.5,0,373,1,3254,ng,A1E9RAXPMZ2CMG,*NF,PlaceAssimilation,112,Place,0
7331,0.5,0,403,1,2182,ng,A1E9RAXPMZ2CMG,*NF,PlaceAssimilation,114,Place,1
7332,0.5,1,304,1,2846,d,A1E9RAXPMZ2CMG,*DF,PlaceAssimilation,115,Voicing,0
7334,0.5,0,316,1,1471,b,A1E9RAXPMZ2CMG,*DF,PlaceAssimilation,117,Voicing,0
7335,0.5,1,388,1,1718,n,A1E9RAXPMZ2CMG,*NF,PlaceAssimilation,118,Place,0
7413,1.0,0,349,1,10068,ng,A1EEQJAIN8Y8PU,*NF,PlaceAssimilation,69,Place,0
7414,1.0,1,301,1,5655,d,A1EEQJAIN8Y8PU,*DF,PlaceAssimilation,70,Voicing,0
7416,1.0,1,340,1,6438,b,A1EEQJAIN8Y8PU,*DF,PlaceAssimilation,72,Voicing,0
7417,1.0,0,367,1,3582,ng,A1EEQJAIN8Y8PU,*NF,PlaceAssimilation,73,Place,1
7418,1.0,0,331,1,3174,b,A1EEQJAIN8Y8PU,*DF,PlaceAssimilation,74,Voicing,1
7421,1.0,1,352,1,5334,n,A1EEQJAIN8Y8PU,*NF,PlaceAssimilation,77,Place,0
7422,1.0,0,304,1,4358,d,A1EEQJAIN8Y8PU,*DF,PlaceAssimilation,78,Voicing,0
7423,1.0,1,346,1,5871,n,A1EEQJAIN8Y8PU,*NF,PlaceAssimilation,79,Place,0
7424,1.0,1,295,1,2437,d,A1EEQJAIN8Y8PU,*DF,PlaceAssimilation,80,Voicing,1
7426,1.0,0,343,1,2862,b,A1EEQJAIN8Y8PU,*DF,PlaceAssimilation,82,Voicing,1
7427,1.0,1,379,1,2662,ng,A1EEQJAIN8Y8PU,*NF,PlaceAssimilation,83,Place,0
7428,1.0,1,307,1,2422,d,A1EEQJAIN8Y8PU,*DF,PlaceAssimilation,84,Voicing,0
7429,1.0,1,358,1,2814,n,A1EEQJAIN8Y8PU,*NF,PlaceAssimilation,85,Place,0
7430,1.0,1,298,1,3494,d,A1EEQJAIN8Y8PU,*DF,PlaceAssimilation,86,Voicing,0
7431,1.0,0,400,1,4478,n,A1EEQJAIN8Y8PU,*NF,PlaceAssimilation,87,Place,1
7432,1.0,0,319,1,2639,b,A1EEQJAIN8Y8PU,*DF,PlaceAssimilation,88,Voicing,0
7433,1.0,1,370,1,3567,n,A1EEQJAIN8Y8PU,*NF,PlaceAssimilation,89,Place,0
7435,1.0,0,382,1,3742,n,A1EEQJAIN8Y8PU,*NF,PlaceAssimilation,91,Place,1
7436,1.0,1,322,1,2774,b,A1EEQJAIN8Y8PU,*DF,PlaceAssimilation,92,Voicing,1
7437,1.0,0,391,1,1711,ng,A1EEQJAIN8Y8PU,*NF,PlaceAssimilation,93,Place,0
7438,1.0,0,337,1,3807,b,A1EEQJAIN8Y8PU,*DF,PlaceAssimilation,94,Voicing,0
7439,1.0,1,403,1,3111,ng,A1EEQJAIN8Y8PU,*NF,PlaceAssimilation,95,Place,1
7440,1.0,0,334,1,2669,b,A1EEQJAIN8Y8PU,*DF,PlaceAssimilation,96,Voicing,0
7441,1.0,0,385,1,7510,ng,A1EEQJAIN8Y8PU,*NF,PlaceAssimilation,97,Place,1
7444,1.0,0,316,1,1831,b,A1EEQJAIN8Y8PU,*DF,PlaceAssimilation,100,Voicing,0
7445,1.0,0,361,1,3847,ng,A1EEQJAIN8Y8PU,*NF,PlaceAssimilation,101,Place,0
7446,1.0,1,292,1,3118,d,A1EEQJAIN8Y8PU,*DF,PlaceAssimilation,102,Voicing,0
7447,1.0,1,388,1,3391,n,A1EEQJAIN8Y8PU,*NF,PlaceAssimilation,103,Place,0
7448,1.0,1,313,1,3757,d,A1EEQJAIN8Y8PU,*DF,PlaceAssimilation,104,Voicing,0
7449,1.0,0,376,1,2141,n,A1EEQJAIN8Y8PU,*NF,PlaceAssimilation,105,Place,1
7452,1.0,1,289,1,1246,d,A1EEQJAIN8Y8PU,*DF,PlaceAssimilation,108,Voicing,0
7453,1.0,1,394,1,3127,n,A1EEQJAIN8Y8PU,*NF,PlaceAssimilation,109,Place,1
7454,1.0,1,286,1,2326,d,A1EEQJAIN8Y8PU,*DF,PlaceAssimilation,110,Voicing,1
7455,1.0,0,373,1,2400,ng,A1EEQJAIN8Y8PU,*NF,PlaceAssimilation,111,Place,0
7456,1.0,0,325,1,3795,b,A1EEQJAIN8Y8PU,*DF,PlaceAssimilation,112,Voicing,0
7457,1.0,0,355,1,2062,ng,A1EEQJAIN8Y8PU,*NF,PlaceAssimilation,113,Place,1
7458,1.0,0,310,1,2014,d,A1EEQJAIN8Y8PU,*DF,PlaceAssimilation,114,Voicing,1
7459,1.0,0,397,1,3342,ng,A1EEQJAIN8Y8PU,*NF,PlaceAssimilation,115,Place,1
7460,1.0,1,328,1,2374,b,A1EEQJAIN8Y8PU,*DF,PlaceAssimilation,116,Voicing,0
7461,1.0,1,364,1,1639,n,A1EEQJAIN8Y8PU,*NF,PlaceAssimilation,117,Place,1
7540,0.6,0,388,1,3382,n,A1EPKYRRR8OMKY,*NF,PlaceAssimilation,69,Place,1
7541,0.6,1,301,1,2718,d,A1EPKYRRR8OMKY,*DF,PlaceAssimilation,70,Voicing,0
7542,0.6,0,346,1,2082,n,A1EPKYRRR8OMKY,*NF,PlaceAssimilation,71,Place,1
7543,0.6,1,313,1,2415,d,A1EPKYRRR8OMKY,*DF,PlaceAssimilation,72,Voicing,0
7544,0.6,1,364,1,1976,n,A1EPKYRRR8OMKY,*NF,PlaceAssimilation,73,Place,1
7545,0.6,0,286,1,2529,d,A1EPKYRRR8OMKY,*DF,PlaceAssimilation,74,Voicing,0
7546,0.6,0,385,1,1729,ng,A1EPKYRRR8OMKY,*NF,PlaceAssimilation,75,Place,1
7548,0.6,0,394,1,2555,n,A1EPKYRRR8OMKY,*NF,PlaceAssimilation,77,Place,1
7549,0.6,0,337,1,4641,b,A1EPKYRRR8OMKY,*DF,PlaceAssimilation,78,Voicing,1
7550,0.6,1,400,1,2951,n,A1EPKYRRR8OMKY,*NF,PlaceAssimilation,79,Place,1
7551,0.6,0,307,1,1789,d,A1EPKYRRR8OMKY,*DF,PlaceAssimilation,80,Voicing,0
7552,0.6,0,403,1,2207,ng,A1EPKYRRR8OMKY,*NF,PlaceAssimilation,81,Place,0
7553,0.6,0,298,1,2810,d,A1EPKYRRR8OMKY,*DF,PlaceAssimilation,82,Voicing,0
7554,0.6,0,397,1,2890,ng,A1EPKYRRR8OMKY,*NF,PlaceAssimilation,83,Place,1
7555,0.6,1,289,1,3033,d,A1EPKYRRR8OMKY,*DF,PlaceAssimilation,84,Voicing,1
7556,0.6,1,373,1,1458,ng,A1EPKYRRR8OMKY,*NF,PlaceAssimilation,85,Place,1
7557,0.6,1,292,1,1479,d,A1EPKYRRR8OMKY,*DF,PlaceAssimilation,86,Voicing,0
7558,0.6,0,379,1,947,ng,A1EPKYRRR8OMKY,*NF,PlaceAssimilation,87,Place,1
7559,0.6,0,328,1,949,b,A1EPKYRRR8OMKY,*DF,PlaceAssimilation,88,Voicing,0
7560,0.6,1,355,1,1023,ng,A1EPKYRRR8OMKY,*NF,PlaceAssimilation,89,Place,0
7561,0.6,1,316,1,2287,b,A1EPKYRRR8OMKY,*DF,PlaceAssimilation,90,Voicing,1
7563,0.6,0,322,1,812,b,A1EPKYRRR8OMKY,*DF,PlaceAssimilation,92,Voicing,0
7564,0.6,0,391,1,778,ng,A1EPKYRRR8OMKY,*NF,PlaceAssimilation,93,Place,1
7565,0.6,1,319,1,766,b,A1EPKYRRR8OMKY,*DF,PlaceAssimilation,94,Voicing,1
7566,0.6,0,376,1,1150,n,A1EPKYRRR8OMKY,*NF,PlaceAssimilation,95,Place,0
7569,0.6,0,304,1,861,d,A1EPKYRRR8OMKY,*DF,PlaceAssimilation,98,Voicing,0
7570,0.6,0,358,1,1134,n,A1EPKYRRR8OMKY,*NF,PlaceAssimilation,99,Place,0
7571,0.6,0,331,1,744,b,A1EPKYRRR8OMKY,*DF,PlaceAssimilation,100,Voicing,0
7573,0.6,1,310,1,704,d,A1EPKYRRR8OMKY,*DF,PlaceAssimilation,102,Voicing,1
7576,0.6,0,370,1,910,n,A1EPKYRRR8OMKY,*NF,PlaceAssimilation,105,Place,0
7577,0.6,0,343,1,1044,b,A1EPKYRRR8OMKY,*DF,PlaceAssimilation,106,Voicing,0
7578,0.6,1,382,1,2360,n,A1EPKYRRR8OMKY,*NF,PlaceAssimilation,107,Place,1
7579,0.6,1,340,1,775,b,A1EPKYRRR8OMKY,*DF,PlaceAssimilation,108,Voicing,0
7580,0.6,0,361,1,960,ng,A1EPKYRRR8OMKY,*NF,PlaceAssimilation,109,Place,0
7581,0.6,1,325,1,894,b,A1EPKYRRR8OMKY,*DF,PlaceAssimilation,110,Voicing,0
7583,0.6,1,295,1,781,d,A1EPKYRRR8OMKY,*DF,PlaceAssimilation,112,Voicing,0
7584,0.6,0,367,1,963,ng,A1EPKYRRR8OMKY,*NF,PlaceAssimilation,113,Place,0
7586,0.6,1,349,1,757,ng,A1EPKYRRR8OMKY,*NF,PlaceAssimilation,115,Place,0
7587,0.6,0,334,1,958,b,A1EPKYRRR8OMKY,*DF,PlaceAssimilation,116,Voicing,0
7588,0.6,0,352,1,959,n,A1EPKYRRR8OMKY,*NF,PlaceAssimilation,117,Place,1
7814,1.0,0,337,1,4751,b,A1F8MOWCCVDIH2,*DF,PlaceAssimilation,70,Voicing,0
7815,1.0,0,373,1,2443,ng,A1F8MOWCCVDIH2,*NF,PlaceAssimilation,71,Place,0
7816,1.0,1,295,1,4001,d,A1F8MOWCCVDIH2,*DF,PlaceAssimilation,72,Voicing,0
7817,1.0,0,394,1,2316,n,A1F8MOWCCVDIH2,*NF,PlaceAssimilation,73,Place,1
7818,1.0,0,301,1,9135,d,A1F8MOWCCVDIH2,*DF,PlaceAssimilation,74,Voicing,1
7819,1.0,1,379,1,4028,ng,A1F8MOWCCVDIH2,*NF,PlaceAssimilation,75,Place,0
7820,1.0,0,316,1,13266,b,A1F8MOWCCVDIH2,*DF,PlaceAssimilation,76,Voicing,0
7821,1.0,1,346,1,3042,n,A1F8MOWCCVDIH2,*NF,PlaceAssimilation,77,Place,1
7822,1.0,0,322,1,4824,b,A1F8MOWCCVDIH2,*DF,PlaceAssimilation,78,Voicing,1
7823,1.0,0,385,1,2404,ng,A1F8MOWCCVDIH2,*NF,PlaceAssimilation,79,Place,1
7826,1.0,1,289,1,2588,d,A1F8MOWCCVDIH2,*DF,PlaceAssimilation,82,Voicing,1
7827,1.0,0,355,1,6768,ng,A1F8MOWCCVDIH2,*NF,PlaceAssimilation,83,Place,1
7828,1.0,0,340,1,10493,b,A1F8MOWCCVDIH2,*DF,PlaceAssimilation,84,Voicing,1
7830,1.0,1,298,1,2770,d,A1F8MOWCCVDIH2,*DF,PlaceAssimilation,86,Voicing,0
7831,1.0,0,358,1,1923,n,A1F8MOWCCVDIH2,*NF,PlaceAssimilation,87,Place,1
7832,1.0,1,292,1,2298,d,A1F8MOWCCVDIH2,*DF,PlaceAssimilation,88,Voicing,1
7833,1.0,0,361,1,2258,ng,A1F8MOWCCVDIH2,*NF,PlaceAssimilation,89,Place,0
7834,1.0,1,310,1,2534,d,A1F8MOWCCVDIH2,*DF,PlaceAssimilation,90,Voicing,1
7837,1.0,0,349,1,2380,ng,A1F8MOWCCVDIH2,*NF,PlaceAssimilation,93,Place,1
7839,1.0,0,391,1,1471,ng,A1F8MOWCCVDIH2,*NF,PlaceAssimilation,95,Place,0
7840,1.0,0,334,1,3770,b,A1F8MOWCCVDIH2,*DF,PlaceAssimilation,96,Voicing,1
7841,1.0,0,397,1,2165,ng,A1F8MOWCCVDIH2,*NF,PlaceAssimilation,97,Place,0
7842,1.0,1,307,1,2374,d,A1F8MOWCCVDIH2,*DF,PlaceAssimilation,98,Voicing,1
7843,1.0,0,367,1,1578,ng,A1F8MOWCCVDIH2,*NF,PlaceAssimilation,99,Place,0
7844,1.0,0,343,1,4383,b,A1F8MOWCCVDIH2,*DF,PlaceAssimilation,100,Voicing,0
7845,1.0,0,376,1,1490,n,A1F8MOWCCVDIH2,*NF,PlaceAssimilation,101,Place,0
7846,1.0,0,325,1,3356,b,A1F8MOWCCVDIH2,*DF,PlaceAssimilation,102,Voicing,1
7847,1.0,0,388,1,1748,n,A1F8MOWCCVDIH2,*NF,PlaceAssimilation,103,Place,0
7848,1.0,1,286,1,3142,d,A1F8MOWCCVDIH2,*DF,PlaceAssimilation,104,Voicing,0
7851,1.0,0,352,1,2610,n,A1F8MOWCCVDIH2,*NF,PlaceAssimilation,107,Place,0
7852,1.0,0,331,1,3673,b,A1F8MOWCCVDIH2,*DF,PlaceAssimilation,108,Voicing,0
7853,1.0,0,382,1,1529,n,A1F8MOWCCVDIH2,*NF,PlaceAssimilation,109,Place,0
7854,1.0,0,328,1,3355,b,A1F8MOWCCVDIH2,*DF,PlaceAssimilation,110,Voicing,0
7855,1.0,0,400,1,1714,n,A1F8MOWCCVDIH2,*NF,PlaceAssimilation,111,Place,1
7856,1.0,1,304,1,2572,d,A1F8MOWCCVDIH2,*DF,PlaceAssimilation,112,Voicing,1
7857,1.0,0,364,1,1603,n,A1F8MOWCCVDIH2,*NF,PlaceAssimilation,113,Place,0
7858,1.0,1,313,1,2208,d,A1F8MOWCCVDIH2,*DF,PlaceAssimilation,114,Voicing,1
7859,1.0,0,403,1,1414,ng,A1F8MOWCCVDIH2,*NF,PlaceAssimilation,115,Place,0
7861,1.0,0,370,1,1827,n,A1F8MOWCCVDIH2,*NF,PlaceAssimilation,117,Place,1
7862,1.0,0,319,1,3313,b,A1F8MOWCCVDIH2,*DF,PlaceAssimilation,118,Voicing,0
7940,1.0,1,340,0,7108,b,A1FTKZ4YTARN6,*DF,Devoicing,69,Voicing,0
7941,1.0,1,355,0,3024,ng,A1FTKZ4YTARN6,*NF,Devoicing,70,Place,0
7942,1.0,1,343,0,2134,b,A1FTKZ4YTARN6,*DF,Devoicing,71,Voicing,0
7943,1.0,0,352,0,2791,n,A1FTKZ4YTARN6,*NF,Devoicing,72,Place,0
7944,1.0,1,319,0,2083,b,A1FTKZ4YTARN6,*DF,Devoicing,73,Voicing,1
7945,1.0,0,394,0,2749,n,A1FTKZ4YTARN6,*NF,Devoicing,74,Place,1
7946,1.0,1,316,0,3771,b,A1FTKZ4YTARN6,*DF,Devoicing,75,Voicing,1
7947,1.0,0,385,0,3140,ng,A1FTKZ4YTARN6,*NF,Devoicing,76,Place,1
7948,1.0,0,307,0,1904,d,A1FTKZ4YTARN6,*DF,Devoicing,77,Voicing,1
7950,1.0,1,286,0,1777,d,A1FTKZ4YTARN6,*DF,Devoicing,79,Voicing,0
7951,1.0,0,370,0,1637,n,A1FTKZ4YTARN6,*NF,Devoicing,80,Place,0
7955,1.0,0,349,0,2048,ng,A1FTKZ4YTARN6,*NF,Devoicing,84,Place,1
7958,1.0,1,331,0,2247,b,A1FTKZ4YTARN6,*DF,Devoicing,87,Voicing,1
7960,1.0,1,337,0,2458,b,A1FTKZ4YTARN6,*DF,Devoicing,89,Voicing,1
7961,1.0,1,391,0,2885,ng,A1FTKZ4YTARN6,*NF,Devoicing,90,Place,0
7962,1.0,1,295,0,1923,d,A1FTKZ4YTARN6,*DF,Devoicing,91,Voicing,0
7963,1.0,0,397,0,1757,ng,A1FTKZ4YTARN6,*NF,Devoicing,92,Place,0
7964,1.0,1,292,0,2654,d,A1FTKZ4YTARN6,*DF,Devoicing,93,Voicing,1
7965,1.0,0,376,0,1814,n,A1FTKZ4YTARN6,*NF,Devoicing,94,Place,1
7966,1.0,1,325,0,2046,b,A1FTKZ4YTARN6,*DF,Devoicing,95,Voicing,1
7967,1.0,1,361,0,1957,ng,A1FTKZ4YTARN6,*NF,Devoicing,96,Place,1
7968,1.0,0,310,0,2635,d,A1FTKZ4YTARN6,*DF,Devoicing,97,Voicing,0
7969,1.0,1,367,0,1847,ng,A1FTKZ4YTARN6,*NF,Devoicing,98,Place,0
7970,1.0,1,313,0,1602,d,A1FTKZ4YTARN6,*DF,Devoicing,99,Voicing,0
7971,1.0,0,358,0,1712,n,A1FTKZ4YTARN6,*NF,Devoicing,100,Place,0
7972,1.0,1,301,0,2492,d,A1FTKZ4YTARN6,*DF,Devoicing,101,Voicing,0
7973,1.0,0,388,0,1661,n,A1FTKZ4YTARN6,*NF,Devoicing,102,Place,1
7974,1.0,1,289,0,2726,d,A1FTKZ4YTARN6,*DF,Devoicing,103,Voicing,0
7975,1.0,0,346,0,1431,n,A1FTKZ4YTARN6,*NF,Devoicing,104,Place,1
7976,1.0,1,304,0,1268,d,A1FTKZ4YTARN6,*DF,Devoicing,105,Voicing,1
7977,1.0,1,373,0,2048,ng,A1FTKZ4YTARN6,*NF,Devoicing,106,Place,1
7978,1.0,1,322,0,1427,b,A1FTKZ4YTARN6,*DF,Devoicing,107,Voicing,0
7979,1.0,0,364,0,1717,n,A1FTKZ4YTARN6,*NF,Devoicing,108,Place,0
7981,1.0,0,400,0,2582,n,A1FTKZ4YTARN6,*NF,Devoicing,110,Place,0
7983,1.0,1,379,0,1836,ng,A1FTKZ4YTARN6,*NF,Devoicing,112,Place,0
7984,1.0,1,328,0,2537,b,A1FTKZ4YTARN6,*DF,Devoicing,113,Voicing,1
7986,1.0,1,334,0,1604,b,A1FTKZ4YTARN6,*DF,Devoicing,115,Voicing,1
7987,1.0,0,382,0,1216,n,A1FTKZ4YTARN6,*NF,Devoicing,116,Place,0
7988,1.0,1,298,0,1235,d,A1FTKZ4YTARN6,*DF,Devoicing,117,Voicing,0
7989,1.0,1,403,0,1610,ng,A1FTKZ4YTARN6,*NF,Devoicing,118,Place,0
8067,0.45,1,349,1,5546,ng,A1FUT2TQPSH76,*NF,PlaceAssimilation,69,Place,1
8068,0.45,0,328,1,5210,b,A1FUT2TQPSH76,*DF,PlaceAssimilation,70,Voicing,1
8069,0.45,0,376,1,1587,n,A1FUT2TQPSH76,*NF,PlaceAssimilation,71,Place,0
8070,0.45,1,334,1,2926,b,A1FUT2TQPSH76,*DF,PlaceAssimilation,72,Voicing,0
8071,0.45,1,373,1,2261,ng,A1FUT2TQPSH76,*NF,PlaceAssimilation,73,Place,0
8073,0.45,0,397,1,4963,ng,A1FUT2TQPSH76,*NF,PlaceAssimilation,75,Place,0
8074,0.45,1,322,1,4534,b,A1FUT2TQPSH76,*DF,PlaceAssimilation,76,Voicing,0
8075,0.45,1,352,1,2779,n,A1FUT2TQPSH76,*NF,PlaceAssimilation,77,Place,0
8076,0.45,1,313,1,2688,d,A1FUT2TQPSH76,*DF,PlaceAssimilation,78,Voicing,0
8079,0.45,0,382,1,5696,n,A1FUT2TQPSH76,*NF,PlaceAssimilation,81,Place,1
8081,0.45,0,364,1,3711,n,A1FUT2TQPSH76,*NF,PlaceAssimilation,83,Place,1
8083,0.45,1,355,1,3333,ng,A1FUT2TQPSH76,*NF,PlaceAssimilation,85,Place,1
8084,0.45,1,289,1,1805,d,A1FUT2TQPSH76,*DF,PlaceAssimilation,86,Voicing,1
8086,0.45,1,319,1,2460,b,A1FUT2TQPSH76,*DF,PlaceAssimilation,88,Voicing,1
8087,0.45,1,400,1,2611,n,A1FUT2TQPSH76,*NF,PlaceAssimilation,89,Place,1
8088,0.45,1,310,1,2204,d,A1FUT2TQPSH76,*DF,PlaceAssimilation,90,Voicing,1
8090,0.45,0,307,1,1558,d,A1FUT2TQPSH76,*DF,PlaceAssimilation,92,Voicing,0
8091,0.45,0,358,1,2153,n,A1FUT2TQPSH76,*NF,PlaceAssimilation,93,Place,0
8092,0.45,0,304,1,2640,d,A1FUT2TQPSH76,*DF,PlaceAssimilation,94,Voicing,0
8093,0.45,0,403,1,1985,ng,A1FUT2TQPSH76,*NF,PlaceAssimilation,95,Place,0
8094,0.45,1,343,1,1895,b,A1FUT2TQPSH76,*DF,PlaceAssimilation,96,Voicing,1
8096,0.45,1,298,1,2619,d,A1FUT2TQPSH76,*DF,PlaceAssimilation,98,Voicing,0
8097,0.45,1,394,1,2035,n,A1FUT2TQPSH76,*NF,PlaceAssimilation,99,Place,0
8098,0.45,1,295,1,1647,d,A1FUT2TQPSH76,*DF,PlaceAssimilation,100,Voicing,0
8099,0.45,0,370,1,1409,n,A1FUT2TQPSH76,*NF,PlaceAssimilation,101,Place,0
8100,0.45,1,331,1,1636,b,A1FUT2TQPSH76,*DF,PlaceAssimilation,102,Voicing,0
8101,0.45,0,346,1,4217,n,A1FUT2TQPSH76,*NF,PlaceAssimilation,103,Place,0
8102,0.45,0,286,1,1867,d,A1FUT2TQPSH76,*DF,PlaceAssimilation,104,Voicing,0
8103,0.45,1,367,1,1429,ng,A1FUT2TQPSH76,*NF,PlaceAssimilation,105,Place,1
8104,0.45,0,316,1,1746,b,A1FUT2TQPSH76,*DF,PlaceAssimilation,106,Voicing,1
8107,0.45,0,388,1,1925,n,A1FUT2TQPSH76,*NF,PlaceAssimilation,109,Place,1
8108,0.45,1,301,1,2154,d,A1FUT2TQPSH76,*DF,PlaceAssimilation,110,Voicing,0
8109,0.45,1,379,1,1230,ng,A1FUT2TQPSH76,*NF,PlaceAssimilation,111,Place,1
8110,0.45,0,337,1,1702,b,A1FUT2TQPSH76,*DF,PlaceAssimilation,112,Voicing,1
8111,0.45,0,391,1,2362,ng,A1FUT2TQPSH76,*NF,PlaceAssimilation,113,Place,1
8112,0.45,0,340,1,1756,b,A1FUT2TQPSH76,*DF,PlaceAssimilation,114,Voicing,0
8113,0.45,1,385,1,1511,ng,A1FUT2TQPSH76,*NF,PlaceAssimilation,115,Place,1
8114,0.45,1,325,1,1856,b,A1FUT2TQPSH76,*DF,PlaceAssimilation,116,Voicing,1
8115,0.45,1,361,1,2192,ng,A1FUT2TQPSH76,*NF,PlaceAssimilation,117,Place,1
8116,0.45,1,292,1,1796,d,A1FUT2TQPSH76,*DF,PlaceAssimilation,118,Voicing,0
8195,0.65,1,304,0,5949,d,A1GAKTZ7E5Y3K2,*DF,Devoicing,70,Voicing,1
8196,0.65,0,388,0,5270,n,A1GAKTZ7E5Y3K2,*NF,Devoicing,71,Place,0
8197,0.65,0,298,0,5119,d,A1GAKTZ7E5Y3K2,*DF,Devoicing,72,Voicing,1
8198,0.65,1,391,0,4207,ng,A1GAKTZ7E5Y3K2,*NF,Devoicing,73,Place,1
8199,0.65,1,310,0,10301,d,A1GAKTZ7E5Y3K2,*DF,Devoicing,74,Voicing,0
8200,0.65,1,349,0,7654,ng,A1GAKTZ7E5Y3K2,*NF,Devoicing,75,Place,1
8201,0.65,1,325,0,6614,b,A1GAKTZ7E5Y3K2,*DF,Devoicing,76,Voicing,1
8202,0.65,0,370,0,4254,n,A1GAKTZ7E5Y3K2,*NF,Devoicing,77,Place,0
8205,0.65,0,334,0,7836,b,A1GAKTZ7E5Y3K2,*DF,Devoicing,80,Voicing,0
8206,0.65,0,397,0,8861,ng,A1GAKTZ7E5Y3K2,*NF,Devoicing,81,Place,0
8207,0.65,1,316,0,5662,b,A1GAKTZ7E5Y3K2,*DF,Devoicing,82,Voicing,1
8208,0.65,1,385,0,5286,ng,A1GAKTZ7E5Y3K2,*NF,Devoicing,83,Place,1
8209,0.65,1,313,0,5270,d,A1GAKTZ7E5Y3K2,*DF,Devoicing,84,Voicing,0
8210,0.65,1,364,0,7294,n,A1GAKTZ7E5Y3K2,*NF,Devoicing,85,Place,0
8211,0.65,1,331,0,4398,b,A1GAKTZ7E5Y3K2,*DF,Devoicing,86,Voicing,1
8214,0.65,1,400,0,5565,n,A1GAKTZ7E5Y3K2,*NF,Devoicing,89,Place,1
8215,0.65,0,328,0,3190,b,A1GAKTZ7E5Y3K2,*DF,Devoicing,90,Voicing,0
8216,0.65,1,352,0,4294,n,A1GAKTZ7E5Y3K2,*NF,Devoicing,91,Place,0
8217,0.65,1,340,0,6007,b,A1GAKTZ7E5Y3K2,*DF,Devoicing,92,Voicing,0
8219,0.65,1,295,0,4733,d,A1GAKTZ7E5Y3K2,*DF,Devoicing,94,Voicing,0
8220,0.65,1,355,0,2215,ng,A1GAKTZ7E5Y3K2,*NF,Devoicing,95,Place,1
8221,0.65,1,289,0,4453,d,A1GAKTZ7E5Y3K2,*DF,Devoicing,96,Voicing,1
8222,0.65,0,358,0,4014,n,A1GAKTZ7E5Y3K2,*NF,Devoicing,97,Place,1
8224,0.65,1,379,0,4294,ng,A1GAKTZ7E5Y3K2,*NF,Devoicing,99,Place,0
8225,0.65,1,286,0,6238,d,A1GAKTZ7E5Y3K2,*DF,Devoicing,100,Voicing,1
8226,0.65,0,394,0,4206,n,A1GAKTZ7E5Y3K2,*NF,Devoicing,101,Place,1
8228,0.65,0,382,0,3983,n,A1GAKTZ7E5Y3K2,*NF,Devoicing,103,Place,0
8230,0.65,0,376,0,5740,n,A1GAKTZ7E5Y3K2,*NF,Devoicing,105,Place,1
8231,0.65,1,319,0,6486,b,A1GAKTZ7E5Y3K2,*DF,Devoicing,106,Voicing,1
8233,0.65,0,301,0,18679,d,A1GAKTZ7E5Y3K2,*DF,Devoicing,108,Voicing,0
8234,0.65,0,373,0,7486,ng,A1GAKTZ7E5Y3K2,*NF,Devoicing,109,Place,0
8235,0.65,0,337,0,2365,b,A1GAKTZ7E5Y3K2,*DF,Devoicing,110,Voicing,0
8236,0.65,0,346,0,2246,n,A1GAKTZ7E5Y3K2,*NF,Devoicing,111,Place,1
8237,0.65,1,343,0,1766,b,A1GAKTZ7E5Y3K2,*DF,Devoicing,112,Voicing,1
8238,0.65,0,403,0,1327,ng,A1GAKTZ7E5Y3K2,*NF,Devoicing,113,Place,1
8239,0.65,0,322,0,1399,b,A1GAKTZ7E5Y3K2,*DF,Devoicing,114,Voicing,0
8240,0.65,1,361,0,1239,ng,A1GAKTZ7E5Y3K2,*NF,Devoicing,115,Place,0
8241,0.65,0,292,0,1373,d,A1GAKTZ7E5Y3K2,*DF,Devoicing,116,Voicing,0
8242,0.65,1,367,0,1191,ng,A1GAKTZ7E5Y3K2,*NF,Devoicing,117,Place,0
8243,0.65,1,307,0,902,d,A1GAKTZ7E5Y3K2,*DF,Devoicing,118,Voicing,1
8321,0.55,0,346,0,8856,n,A1GCSTJQO6NDDM,*NF,Devoicing,69,Place,1
8322,0.55,0,325,0,2141,b,A1GCSTJQO6NDDM,*DF,Devoicing,70,Voicing,0
8323,0.55,1,379,0,3516,ng,A1GCSTJQO6NDDM,*NF,Devoicing,71,Place,1
8324,0.55,1,286,0,3033,d,A1GCSTJQO6NDDM,*DF,Devoicing,72,Voicing,0
8325,0.55,0,349,0,3117,ng,A1GCSTJQO6NDDM,*NF,Devoicing,73,Place,1
8326,0.55,1,334,0,5284,b,A1GCSTJQO6NDDM,*DF,Devoicing,74,Voicing,0
8328,0.55,0,319,0,3492,b,A1GCSTJQO6NDDM,*DF,Devoicing,76,Voicing,0
8329,0.55,1,388,0,1822,n,A1GCSTJQO6NDDM,*NF,Devoicing,77,Place,0
8330,0.55,0,295,0,2905,d,A1GCSTJQO6NDDM,*DF,Devoicing,78,Voicing,0
8331,0.55,1,364,0,3069,n,A1GCSTJQO6NDDM,*NF,Devoicing,79,Place,1
8333,0.55,0,376,0,4329,n,A1GCSTJQO6NDDM,*NF,Devoicing,81,Place,1
8334,0.55,1,301,0,1954,d,A1GCSTJQO6NDDM,*DF,Devoicing,82,Voicing,1
8335,0.55,0,352,0,4453,n,A1GCSTJQO6NDDM,*NF,Devoicing,83,Place,0
8336,0.55,0,292,0,1667,d,A1GCSTJQO6NDDM,*DF,Devoicing,84,Voicing,0
8337,0.55,1,382,0,3573,n,A1GCSTJQO6NDDM,*NF,Devoicing,85,Place,1
8338,0.55,0,313,0,1757,d,A1GCSTJQO6NDDM,*DF,Devoicing,86,Voicing,0
8339,0.55,0,403,0,2907,ng,A1GCSTJQO6NDDM,*NF,Devoicing,87,Place,1
8342,0.55,0,289,0,2492,d,A1GCSTJQO6NDDM,*DF,Devoicing,90,Voicing,0
8345,0.55,0,361,0,2684,ng,A1GCSTJQO6NDDM,*NF,Devoicing,93,Place,0
8346,0.55,0,343,0,7157,b,A1GCSTJQO6NDDM,*DF,Devoicing,94,Voicing,0
8347,0.55,1,370,0,1882,n,A1GCSTJQO6NDDM,*NF,Devoicing,95,Place,1
8349,0.55,1,391,0,4562,ng,A1GCSTJQO6NDDM,*NF,Devoicing,97,Place,1
8350,0.55,0,304,0,3751,d,A1GCSTJQO6NDDM,*DF,Devoicing,98,Voicing,0
8351,0.55,1,400,0,3394,n,A1GCSTJQO6NDDM,*NF,Devoicing,99,Place,1
8353,0.55,0,355,0,1925,ng,A1GCSTJQO6NDDM,*NF,Devoicing,101,Place,1
8354,0.55,0,298,0,2848,d,A1GCSTJQO6NDDM,*DF,Devoicing,102,Voicing,1
8355,0.55,0,373,0,2339,ng,A1GCSTJQO6NDDM,*NF,Devoicing,103,Place,1
8356,0.55,0,307,0,2130,d,A1GCSTJQO6NDDM,*DF,Devoicing,104,Voicing,1
8357,0.55,1,358,0,1891,n,A1GCSTJQO6NDDM,*NF,Devoicing,105,Place,1
8358,0.55,0,337,0,1698,b,A1GCSTJQO6NDDM,*DF,Devoicing,106,Voicing,1
8360,0.55,1,316,0,1707,b,A1GCSTJQO6NDDM,*DF,Devoicing,108,Voicing,0
8361,0.55,0,397,0,2676,ng,A1GCSTJQO6NDDM,*NF,Devoicing,109,Place,1
8362,0.55,0,331,0,3196,b,A1GCSTJQO6NDDM,*DF,Devoicing,110,Voicing,1
8364,0.55,0,328,0,1923,b,A1GCSTJQO6NDDM,*DF,Devoicing,112,Voicing,1
8365,0.55,0,385,0,2646,ng,A1GCSTJQO6NDDM,*NF,Devoicing,113,Place,1
8366,0.55,1,322,0,1623,b,A1GCSTJQO6NDDM,*DF,Devoicing,114,Voicing,1
8367,0.55,1,394,0,1547,n,A1GCSTJQO6NDDM,*NF,Devoicing,115,Place,0
8368,0.55,0,310,0,2021,d,A1GCSTJQO6NDDM,*DF,Devoicing,116,Voicing,1
8369,0.55,1,367,0,1902,ng,A1GCSTJQO6NDDM,*NF,Devoicing,117,Place,0
8370,0.55,1,340,0,2188,b,A1GCSTJQO6NDDM,*DF,Devoicing,118,Voicing,0
8448,1.0,0,307,0,7876,d,A1GLF2427E02YG,*DF,Devoicing,69,Voicing,0
8449,1.0,0,400,0,2543,n,A1GLF2427E02YG,*NF,Devoicing,70,Place,0
8450,1.0,1,304,0,2059,d,A1GLF2427E02YG,*DF,Devoicing,71,Voicing,1
8451,1.0,1,403,0,2765,ng,A1GLF2427E02YG,*NF,Devoicing,72,Place,1
8452,1.0,1,316,0,3772,b,A1GLF2427E02YG,*DF,Devoicing,73,Voicing,1
8454,1.0,0,325,0,2763,b,A1GLF2427E02YG,*DF,Devoicing,75,Voicing,1
8456,1.0,1,310,0,4682,d,A1GLF2427E02YG,*DF,Devoicing,77,Voicing,1
8457,1.0,1,385,0,3667,ng,A1GLF2427E02YG,*NF,Devoicing,78,Place,1
8458,1.0,1,334,0,4332,b,A1GLF2427E02YG,*DF,Devoicing,79,Voicing,1
8459,1.0,1,367,0,2016,ng,A1GLF2427E02YG,*NF,Devoicing,80,Place,0
8460,1.0,1,292,0,2234,d,A1GLF2427E02YG,*DF,Devoicing,81,Voicing,1
8461,1.0,0,352,0,1972,n,A1GLF2427E02YG,*NF,Devoicing,82,Place,1
8462,1.0,1,313,0,2337,d,A1GLF2427E02YG,*DF,Devoicing,83,Voicing,0
8464,1.0,0,328,0,2941,b,A1GLF2427E02YG,*DF,Devoicing,85,Voicing,0
8465,1.0,1,370,0,2447,n,A1GLF2427E02YG,*NF,Devoicing,86,Place,1
8466,1.0,1,301,0,2700,d,A1GLF2427E02YG,*DF,Devoicing,87,Voicing,0
8467,1.0,1,361,0,2491,ng,A1GLF2427E02YG,*NF,Devoicing,88,Place,0
8468,1.0,1,289,0,1774,d,A1GLF2427E02YG,*DF,Devoicing,89,Voicing,1
8471,1.0,0,349,0,2387,ng,A1GLF2427E02YG,*NF,Devoicing,92,Place,1
8472,1.0,0,298,0,2318,d,A1GLF2427E02YG,*DF,Devoicing,93,Voicing,1
8473,1.0,0,376,0,2564,n,A1GLF2427E02YG,*NF,Devoicing,94,Place,1
8474,1.0,0,322,0,2483,b,A1GLF2427E02YG,*DF,Devoicing,95,Voicing,1
8475,1.0,1,379,0,2996,ng,A1GLF2427E02YG,*NF,Devoicing,96,Place,0
8476,1.0,0,286,0,3224,d,A1GLF2427E02YG,*DF,Devoicing,97,Voicing,1
8477,1.0,1,391,0,2329,ng,A1GLF2427E02YG,*NF,Devoicing,98,Place,0
8478,1.0,0,331,0,2277,b,A1GLF2427E02YG,*DF,Devoicing,99,Voicing,1
8479,1.0,0,355,0,2673,ng,A1GLF2427E02YG,*NF,Devoicing,100,Place,1
8481,1.0,0,397,0,2472,ng,A1GLF2427E02YG,*NF,Devoicing,102,Place,1
8483,1.0,0,358,0,2555,n,A1GLF2427E02YG,*NF,Devoicing,104,Place,1
8484,1.0,0,337,0,2343,b,A1GLF2427E02YG,*DF,Devoicing,105,Voicing,1
8485,1.0,1,373,0,2319,ng,A1GLF2427E02YG,*NF,Devoicing,106,Place,0
8486,1.0,0,343,0,2150,b,A1GLF2427E02YG,*DF,Devoicing,107,Voicing,0
8487,1.0,1,382,0,4202,n,A1GLF2427E02YG,*NF,Devoicing,108,Place,0
8488,1.0,1,319,0,2357,b,A1GLF2427E02YG,*DF,Devoicing,109,Voicing,0
8489,1.0,0,388,0,2619,n,A1GLF2427E02YG,*NF,Devoicing,110,Place,0
8491,1.0,1,346,0,2703,n,A1GLF2427E02YG,*NF,Devoicing,112,Place,0
8492,1.0,0,340,0,3777,b,A1GLF2427E02YG,*DF,Devoicing,113,Voicing,0
8495,1.0,0,364,0,3055,n,A1GLF2427E02YG,*NF,Devoicing,116,Place,0
8496,1.0,0,295,0,2601,d,A1GLF2427E02YG,*DF,Devoicing,117,Voicing,1
8497,1.0,0,394,0,2161,n,A1GLF2427E02YG,*NF,Devoicing,118,Place,0
8921,0.85,1,331,0,6701,b,A1H2JCEFD6EMVS,*DF,Devoicing,69,Voicing,1
8922,0.85,0,394,0,6212,n,A1H2JCEFD6EMVS,*NF,Devoicing,70,Place,0
8923,0.85,1,319,0,3827,b,A1H2JCEFD6EMVS,*DF,Devoicing,71,Voicing,1
8924,0.85,1,355,0,4125,ng,A1H2JCEFD6EMVS,*NF,Devoicing,72,Place,1
8926,0.85,0,373,0,4015,ng,A1H2JCEFD6EMVS,*NF,Devoicing,74,Place,1
8927,0.85,0,334,0,4747,b,A1H2JCEFD6EMVS,*DF,Devoicing,75,Voicing,1
8928,0.85,0,388,0,3302,n,A1H2JCEFD6EMVS,*NF,Devoicing,76,Place,0
8930,0.85,1,379,0,6234,ng,A1H2JCEFD6EMVS,*NF,Devoicing,78,Place,1
8931,0.85,1,310,0,4421,d,A1H2JCEFD6EMVS,*DF,Devoicing,79,Voicing,0
8933,0.85,1,286,0,3080,d,A1H2JCEFD6EMVS,*DF,Devoicing,81,Voicing,0
8934,0.85,1,385,0,3641,ng,A1H2JCEFD6EMVS,*NF,Devoicing,82,Place,0
8935,0.85,0,325,0,3095,b,A1H2JCEFD6EMVS,*DF,Devoicing,83,Voicing,1
8936,0.85,0,358,0,2659,n,A1H2JCEFD6EMVS,*NF,Devoicing,84,Place,1
8937,0.85,1,337,0,4319,b,A1H2JCEFD6EMVS,*DF,Devoicing,85,Voicing,0
8938,0.85,1,364,0,2722,n,A1H2JCEFD6EMVS,*NF,Devoicing,86,Place,1
8939,0.85,1,307,0,3400,d,A1H2JCEFD6EMVS,*DF,Devoicing,87,Voicing,0
8941,0.85,1,322,0,2055,b,A1H2JCEFD6EMVS,*DF,Devoicing,89,Voicing,0
8942,0.85,1,361,0,3034,ng,A1H2JCEFD6EMVS,*NF,Devoicing,90,Place,0
8943,0.85,1,343,0,2963,b,A1H2JCEFD6EMVS,*DF,Devoicing,91,Voicing,0
8944,0.85,0,346,0,2696,n,A1H2JCEFD6EMVS,*NF,Devoicing,92,Place,1
8945,0.85,1,316,0,1784,b,A1H2JCEFD6EMVS,*DF,Devoicing,93,Voicing,0
8946,0.85,1,391,0,1922,ng,A1H2JCEFD6EMVS,*NF,Devoicing,94,Place,0
8947,0.85,0,298,0,4492,d,A1H2JCEFD6EMVS,*DF,Devoicing,95,Voicing,1
8948,0.85,0,352,0,3719,n,A1H2JCEFD6EMVS,*NF,Devoicing,96,Place,0
8949,0.85,1,328,0,3861,b,A1H2JCEFD6EMVS,*DF,Devoicing,97,Voicing,1
8950,0.85,0,382,0,1836,n,A1H2JCEFD6EMVS,*NF,Devoicing,98,Place,1
8951,0.85,1,301,0,2590,d,A1H2JCEFD6EMVS,*DF,Devoicing,99,Voicing,0
8952,0.85,1,367,0,2151,ng,A1H2JCEFD6EMVS,*NF,Devoicing,100,Place,0
8954,0.85,0,370,0,2512,n,A1H2JCEFD6EMVS,*NF,Devoicing,102,Place,1
8955,0.85,1,292,0,1737,d,A1H2JCEFD6EMVS,*DF,Devoicing,103,Voicing,0
8956,0.85,0,400,0,2936,n,A1H2JCEFD6EMVS,*NF,Devoicing,104,Place,0
8957,0.85,1,304,0,1748,d,A1H2JCEFD6EMVS,*DF,Devoicing,105,Voicing,1
8959,0.85,1,313,0,1758,d,A1H2JCEFD6EMVS,*DF,Devoicing,107,Voicing,1
8960,0.85,0,376,0,4251,n,A1H2JCEFD6EMVS,*NF,Devoicing,108,Place,0
8961,0.85,1,340,0,1804,b,A1H2JCEFD6EMVS,*DF,Devoicing,109,Voicing,0
8965,0.85,1,295,0,1639,d,A1H2JCEFD6EMVS,*DF,Devoicing,113,Voicing,1
8966,0.85,1,403,0,1523,ng,A1H2JCEFD6EMVS,*NF,Devoicing,114,Place,0
8967,0.85,1,289,0,1313,d,A1H2JCEFD6EMVS,*DF,Devoicing,115,Voicing,1
8968,0.85,1,397,0,2004,ng,A1H2JCEFD6EMVS,*NF,Devoicing,116,Place,0
8970,0.85,1,349,0,3515,ng,A1H2JCEFD6EMVS,*NF,Devoicing,118,Place,1
9048,0.5,1,352,0,14202,n,A1HDRB3VB48WJ8,*NF,Devoicing,69,Place,0
9049,0.5,0,322,0,7161,b,A1HDRB3VB48WJ8,*DF,Devoicing,70,Voicing,1
9050,0.5,0,364,0,4437,n,A1HDRB3VB48WJ8,*NF,Devoicing,71,Place,1
9052,0.5,1,403,0,1768,ng,A1HDRB3VB48WJ8,*NF,Devoicing,73,Place,0
9053,0.5,0,328,0,1772,b,A1HDRB3VB48WJ8,*DF,Devoicing,74,Voicing,0
9054,0.5,1,349,0,2713,ng,A1HDRB3VB48WJ8,*NF,Devoicing,75,Place,1
9055,0.5,1,313,0,2349,d,A1HDRB3VB48WJ8,*DF,Devoicing,76,Voicing,1
9056,0.5,0,376,0,1976,n,A1HDRB3VB48WJ8,*NF,Devoicing,77,Place,0
9057,0.5,0,295,0,2987,d,A1HDRB3VB48WJ8,*DF,Devoicing,78,Voicing,0
9058,0.5,1,367,0,2518,ng,A1HDRB3VB48WJ8,*NF,Devoicing,79,Place,1
9059,0.5,0,298,0,4772,d,A1HDRB3VB48WJ8,*DF,Devoicing,80,Voicing,1
9060,0.5,0,394,0,7066,n,A1HDRB3VB48WJ8,*NF,Devoicing,81,Place,1
9061,0.5,1,325,0,4237,b,A1HDRB3VB48WJ8,*DF,Devoicing,82,Voicing,0
9062,0.5,1,346,0,2726,n,A1HDRB3VB48WJ8,*NF,Devoicing,83,Place,1
9063,0.5,1,334,0,2717,b,A1HDRB3VB48WJ8,*DF,Devoicing,84,Voicing,1
9064,0.5,1,370,0,1938,n,A1HDRB3VB48WJ8,*NF,Devoicing,85,Place,1
9065,0.5,1,343,0,2399,b,A1HDRB3VB48WJ8,*DF,Devoicing,86,Voicing,1
9067,0.5,0,319,0,3690,b,A1HDRB3VB48WJ8,*DF,Devoicing,88,Voicing,0
9069,0.5,1,286,0,3101,d,A1HDRB3VB48WJ8,*DF,Devoicing,90,Voicing,0
9070,0.5,0,397,0,3116,ng,A1HDRB3VB48WJ8,*NF,Devoicing,91,Place,1
9071,0.5,0,310,0,2146,d,A1HDRB3VB48WJ8,*DF,Devoicing,92,Voicing,1
9072,0.5,1,379,0,2014,ng,A1HDRB3VB48WJ8,*NF,Devoicing,93,Place,1
9073,0.5,1,316,0,3003,b,A1HDRB3VB48WJ8,*DF,Devoicing,94,Voicing,1
9075,0.5,0,337,0,3133,b,A1HDRB3VB48WJ8,*DF,Devoicing,96,Voicing,1
9077,0.5,1,301,0,2029,d,A1HDRB3VB48WJ8,*DF,Devoicing,98,Voicing,0
9078,0.5,1,355,0,1553,ng,A1HDRB3VB48WJ8,*NF,Devoicing,99,Place,1
9079,0.5,1,292,0,2088,d,A1HDRB3VB48WJ8,*DF,Devoicing,100,Voicing,1
9080,0.5,1,373,0,1693,ng,A1HDRB3VB48WJ8,*NF,Devoicing,101,Place,1
9082,0.5,1,382,0,1975,n,A1HDRB3VB48WJ8,*NF,Devoicing,103,Place,1
9083,0.5,1,331,0,1787,b,A1HDRB3VB48WJ8,*DF,Devoicing,104,Voicing,0
9086,0.5,0,385,0,2009,ng,A1HDRB3VB48WJ8,*NF,Devoicing,107,Place,0
9087,0.5,0,307,0,2354,d,A1HDRB3VB48WJ8,*DF,Devoicing,108,Voicing,1
9088,0.5,1,400,0,2654,n,A1HDRB3VB48WJ8,*NF,Devoicing,109,Place,0
9089,0.5,0,340,0,1753,b,A1HDRB3VB48WJ8,*DF,Devoicing,110,Voicing,0
9090,0.5,0,358,0,2652,n,A1HDRB3VB48WJ8,*NF,Devoicing,111,Place,0
9091,0.5,0,289,0,2567,d,A1HDRB3VB48WJ8,*DF,Devoicing,112,Voicing,1
