,CodaViolation,Condition,Item,OnsetViolation,PageType,ReactionTime,Response,Subject,TrialNumber,Version,Vowel,YesPosition
135,1,GB,flathk,0,Test,5308,0,A11T1Z2NVJ6DTP,2,3,a,1
136,1,GB,blofk,0,Test,1816,0,A11T1Z2NVJ6DTP,3,3,o,1
137,0,GG,troom,0,Test,2020,1,A11T1Z2NVJ6DTP,4,3,oo,1
138,1,GB,shritp,0,Test,2925,0,A11T1Z2NVJ6DTP,5,3,i,0
139,0,BG,thloo,1,Test,3217,1,A11T1Z2NVJ6DTP,6,3,oo,0
140,1,BB,thnukp,1,Test,2590,0,A11T1Z2NVJ6DTP,7,3,u,0
141,0,BG,vmep,1,Test,2090,0,A11T1Z2NVJ6DTP,8,3,e,1
142,1,GB,spoz,0,Test,2896,1,A11T1Z2NVJ6DTP,9,3,o,1
143,0,GG,klep,0,Test,1508,1,A11T1Z2NVJ6DTP,10,3,e,0
144,1,GB,frid,0,Test,2681,0,A11T1Z2NVJ6DTP,11,3,i,1
145,1,best,frotion,1,Catch,1668,1,A11T1Z2NVJ6DTP,12,3,,0
146,1,BB,zdumth,1,Test,2418,0,A11T1Z2NVJ6DTP,13,3,u,1
147,0,GG,sle,0,Test,1779,1,A11T1Z2NVJ6DTP,14,3,e,0
148,0,GG,splot,0,Test,1877,1,A11T1Z2NVJ6DTP,15,3,o,1
149,1,worst,krlisg,1,Catch,1612,0,A11T1Z2NVJ6DTP,16,3,,1
150,1,worst,lbifth,1,Catch,3855,0,A11T1Z2NVJ6DTP,17,3,,1
151,0,BG,shpizz,1,Test,2788,0,A11T1Z2NVJ6DTP,18,3,i,0
152,1,best,dellous,1,Catch,1393,1,A11T1Z2NVJ6DTP,19,3,,0
153,0,GG,throoz,0,Test,1674,1,A11T1Z2NVJ6DTP,20,3,oo,1
154,0,BG,srid,1,Test,2252,1,A11T1Z2NVJ6DTP,21,3,i,0
155,1,worst,zgdivl,1,Catch,1417,0,A11T1Z2NVJ6DTP,22,3,,0
156,1,best,bressic,1,Catch,1411,1,A11T1Z2NVJ6DTP,23,3,,0
157,0,BG,hrool,1,Test,1617,1,A11T1Z2NVJ6DTP,24,3,oo,0
158,1,BB,fmen,1,Test,1509,0,A11T1Z2NVJ6DTP,25,3,e,1
159,1,best,merly,1,Catch,1641,1,A11T1Z2NVJ6DTP,26,3,,1
160,1,GB,skashk,0,Test,1808,0,A11T1Z2NVJ6DTP,27,3,a,1
161,0,BG,zmock,1,Test,1571,0,A11T1Z2NVJ6DTP,28,3,o,0
162,1,best,claffer,1,Catch,1359,1,A11T1Z2NVJ6DTP,29,3,,0
163,1,worst,psatrl,1,Catch,2523,0,A11T1Z2NVJ6DTP,30,3,,1
164,0,GG,grun,0,Test,1298,1,A11T1Z2NVJ6DTP,31,3,u,1
165,1,BB,shtefsh,1,Test,3857,0,A11T1Z2NVJ6DTP,32,3,e,1
166,1,worst,wlramr,1,Catch,1556,0,A11T1Z2NVJ6DTP,33,3,,0
167,1,best,spellion,1,Catch,1540,1,A11T1Z2NVJ6DTP,34,3,,1
168,1,BB,vlathp,1,Test,2514,0,A11T1Z2NVJ6DTP,35,3,a,0
169,1,worst,tmoz,1,Catch,1642,0,A11T1Z2NVJ6DTP,36,3,,1
170,1,BB,tlav,1,Test,1426,0,A11T1Z2NVJ6DTP,37,3,a,0
216,1,BB,vlathp,1,Test,8019,0,A12732HJZ36R6Q,2,3,a,1
217,1,worst,wlramr,1,Catch,6814,0,A12732HJZ36R6Q,3,3,,0
218,0,BG,shpizz,1,Test,7353,1,A12732HJZ36R6Q,4,3,i,0
219,1,best,bressic,1,Catch,3905,1,A12732HJZ36R6Q,5,3,,1
220,1,worst,psatrl,1,Catch,1985,0,A12732HJZ36R6Q,6,3,,1
221,1,BB,fmen,1,Test,4321,0,A12732HJZ36R6Q,7,3,e,0
222,0,BG,hrool,1,Test,2465,1,A12732HJZ36R6Q,8,3,oo,1
223,1,GB,flathk,0,Test,1763,1,A12732HJZ36R6Q,9,3,a,0
224,0,GG,throoz,0,Test,3226,0,A12732HJZ36R6Q,10,3,oo,0
225,1,best,frotion,1,Catch,3083,1,A12732HJZ36R6Q,11,3,,1
226,0,GG,klep,0,Test,1673,1,A12732HJZ36R6Q,12,3,e,0
227,1,GB,spoz,0,Test,1337,0,A12732HJZ36R6Q,13,3,o,0
228,0,GG,splot,0,Test,1266,1,A12732HJZ36R6Q,14,3,o,0
229,1,worst,krlisg,1,Catch,1827,0,A12732HJZ36R6Q,15,3,,0
230,1,GB,blofk,0,Test,5866,0,A12732HJZ36R6Q,16,3,o,1
231,0,BG,zmock,1,Test,2395,1,A12732HJZ36R6Q,17,3,o,1
232,1,worst,lbifth,1,Catch,2323,0,A12732HJZ36R6Q,18,3,,0
233,1,GB,frid,0,Test,2018,0,A12732HJZ36R6Q,19,3,i,0
234,1,BB,tlav,1,Test,2100,0,A12732HJZ36R6Q,20,3,a,1
235,1,BB,thnukp,1,Test,1734,0,A12732HJZ36R6Q,21,3,u,1
236,1,BB,shtefsh,1,Test,2657,0,A12732HJZ36R6Q,22,3,e,1
237,1,worst,tmoz,1,Catch,2018,0,A12732HJZ36R6Q,23,3,,0
238,1,GB,skashk,0,Test,3058,1,A12732HJZ36R6Q,24,3,a,1
239,1,BB,zdumth,1,Test,1722,0,A12732HJZ36R6Q,25,3,u,0
240,1,GB,shritp,0,Test,1754,1,A12732HJZ36R6Q,26,3,i,0
241,0,BG,srid,1,Test,1939,1,A12732HJZ36R6Q,27,3,i,1
242,1,best,spellion,1,Catch,1522,1,A12732HJZ36R6Q,28,3,,0
243,0,BG,thloo,1,Test,2249,1,A12732HJZ36R6Q,29,3,oo,1
244,0,GG,grun,0,Test,1459,1,A12732HJZ36R6Q,30,3,u,0
245,1,best,claffer,1,Catch,1244,1,A12732HJZ36R6Q,31,3,,1
246,1,best,merly,1,Catch,1586,1,A12732HJZ36R6Q,32,3,,1
247,0,GG,troom,0,Test,1947,0,A12732HJZ36R6Q,33,3,oo,0
248,1,best,dellous,1,Catch,1707,1,A12732HJZ36R6Q,34,3,,1
249,1,worst,zgdivl,1,Catch,1235,0,A12732HJZ36R6Q,35,3,,1
250,0,GG,sle,0,Test,1659,1,A12732HJZ36R6Q,36,3,e,1
251,0,BG,vmep,1,Test,1420,1,A12732HJZ36R6Q,37,3,e,0
414,1,worst,psatrl,1,Catch,20300,0,A13T3WDL9LTCO6,2,0,,0
415,1,best,frotion,1,Catch,3251,1,A13T3WDL9LTCO6,3,0,,1
416,1,BB,srishf,1,Test,3318,0,A13T3WDL9LTCO6,4,0,i,0
417,1,worst,wlramr,1,Catch,3096,0,A13T3WDL9LTCO6,5,0,,1
418,0,GG,drell,0,Test,1614,1,A13T3WDL9LTCO6,6,0,e,1
419,1,BB,shpivg,1,Test,4527,0,A13T3WDL9LTCO6,7,0,i,1
420,1,GB,gruzv,0,Test,4351,0,A13T3WDL9LTCO6,8,0,u,0
421,0,BG,lrim,1,Test,2959,1,A13T3WDL9LTCO6,9,0,i,1
422,1,worst,lbifth,1,Catch,4895,0,A13T3WDL9LTCO6,10,0,,0
423,1,best,merly,1,Catch,3744,1,A13T3WDL9LTCO6,11,0,,0
424,0,GG,pruss,0,Test,1406,1,A13T3WDL9LTCO6,12,0,u,1
425,0,BG,znin,1,Test,3421,0,A13T3WDL9LTCO6,13,0,i,0
426,1,worst,tmoz,1,Catch,3759,1,A13T3WDL9LTCO6,14,0,,0
427,1,BB,thloosf,1,Test,2615,1,A13T3WDL9LTCO6,15,0,oo,1
428,0,BG,shlaff,1,Test,2191,1,A13T3WDL9LTCO6,16,0,a,0
429,1,GB,splog,0,Test,2279,0,A13T3WDL9LTCO6,17,0,o,1
430,1,BB,vmebg,1,Test,2447,0,A13T3WDL9LTCO6,18,0,e,0
431,1,best,claffer,1,Catch,1328,1,A13T3WDL9LTCO6,19,0,,0
432,1,BB,hroothf,1,Test,2224,0,A13T3WDL9LTCO6,20,0,oo,1
433,1,GB,klefp,0,Test,1991,1,A13T3WDL9LTCO6,21,0,e,1
434,0,BG,zboss,1,Test,4519,0,A13T3WDL9LTCO6,22,0,o,0
435,0,BG,vnad,1,Test,5960,1,A13T3WDL9LTCO6,23,0,a,0
436,1,worst,krlisg,1,Catch,4919,1,A13T3WDL9LTCO6,24,0,,0
437,1,worst,zgdivl,1,Catch,4823,0,A13T3WDL9LTCO6,25,0,,0
438,0,GG,krat,0,Test,1255,1,A13T3WDL9LTCO6,26,0,a,0
439,0,GG,swuff,0,Test,1375,1,A13T3WDL9LTCO6,27,0,u,1
440,0,BG,shnog,1,Test,1471,1,A13T3WDL9LTCO6,28,0,o,1
441,1,GB,throozg,0,Test,2023,0,A13T3WDL9LTCO6,29,0,oo,1
442,1,GB,slemg,0,Test,3702,1,A13T3WDL9LTCO6,30,0,e,1
443,1,GB,trooshp,0,Test,1924,1,A13T3WDL9LTCO6,31,0,oo,0
444,0,GG,smeck,0,Test,2280,1,A13T3WDL9LTCO6,32,0,e,0
445,1,best,dellous,1,Catch,2103,1,A13T3WDL9LTCO6,33,0,,1
446,1,best,bressic,1,Catch,1916,1,A13T3WDL9LTCO6,34,0,,0
447,1,BB,zmopk,1,Test,3904,0,A13T3WDL9LTCO6,35,0,o,1
448,0,GG,plag,0,Test,3288,1,A13T3WDL9LTCO6,36,0,a,0
449,1,best,spellion,1,Catch,1663,1,A13T3WDL9LTCO6,37,0,,0
503,1,worst,krlisg,1,Catch,8025,0,A1468JGK2IQS47,2,0,,0
504,1,GB,slemg,0,Test,2619,0,A1468JGK2IQS47,3,0,e,0
505,1,best,dellous,1,Catch,2538,1,A1468JGK2IQS47,4,0,,0
506,1,worst,psatrl,1,Catch,3883,0,A1468JGK2IQS47,5,0,,1
507,1,BB,srishf,1,Test,3121,0,A1468JGK2IQS47,6,0,i,1
508,0,GG,plag,0,Test,2905,1,A1468JGK2IQS47,7,0,a,0
509,1,worst,zgdivl,1,Catch,1906,0,A1468JGK2IQS47,8,0,,0
510,1,GB,klefp,0,Test,3347,0,A1468JGK2IQS47,9,0,e,0
511,0,GG,smeck,0,Test,2006,1,A1468JGK2IQS47,10,0,e,0
512,1,best,bressic,1,Catch,1926,1,A1468JGK2IQS47,11,0,,0
513,0,GG,swuff,0,Test,2566,1,A1468JGK2IQS47,12,0,u,1
514,0,BG,shlaff,1,Test,2920,1,A1468JGK2IQS47,13,0,a,1
515,0,BG,lrim,1,Test,1905,0,A1468JGK2IQS47,14,0,i,1
516,1,BB,shpivg,1,Test,1723,0,A1468JGK2IQS47,15,0,i,1
517,1,best,spellion,1,Catch,2519,1,A1468JGK2IQS47,16,0,,1
518,1,BB,zmopk,1,Test,1984,0,A1468JGK2IQS47,17,0,o,0
519,1,best,claffer,1,Catch,1518,1,A1468JGK2IQS47,18,0,,0
520,1,GB,trooshp,0,Test,4621,0,A1468JGK2IQS47,19,0,oo,0
521,1,worst,tmoz,1,Catch,2805,0,A1468JGK2IQS47,20,0,,0
522,1,best,frotion,1,Catch,2248,1,A1468JGK2IQS47,21,0,,0
523,0,BG,shnog,1,Test,2421,1,A1468JGK2IQS47,22,0,o,0
524,0,BG,zboss,1,Test,1995,0,A1468JGK2IQS47,23,0,o,0
525,1,GB,gruzv,0,Test,2326,0,A1468JGK2IQS47,24,0,u,0
526,1,BB,thloosf,1,Test,1838,0,A1468JGK2IQS47,25,0,oo,0
527,1,BB,vmebg,1,Test,1848,0,A1468JGK2IQS47,26,0,e,0
528,0,GG,drell,0,Test,1491,1,A1468JGK2IQS47,27,0,e,0
529,1,GB,splog,0,Test,1999,0,A1468JGK2IQS47,28,0,o,1
530,1,worst,wlramr,1,Catch,1850,0,A1468JGK2IQS47,29,0,,1
531,0,GG,krat,0,Test,2372,1,A1468JGK2IQS47,30,0,a,1
532,1,worst,lbifth,1,Catch,2488,0,A1468JGK2IQS47,31,0,,0
533,1,best,merly,1,Catch,1969,1,A1468JGK2IQS47,32,0,,0
534,1,BB,hroothf,1,Test,1959,0,A1468JGK2IQS47,33,0,oo,0
535,0,BG,znin,1,Test,2155,0,A1468JGK2IQS47,34,0,i,0
536,0,BG,vnad,1,Test,2539,0,A1468JGK2IQS47,35,0,a,1
537,0,GG,pruss,0,Test,1547,1,A1468JGK2IQS47,36,0,u,1
538,1,GB,throozg,0,Test,1663,0,A1468JGK2IQS47,37,0,oo,1
584,0,GG,bloss,0,Test,16592,1,A14QUXLGHE0ABZ,2,2,o,1
585,1,GB,skrebg,0,Test,12338,0,A14QUXLGHE0ABZ,3,2,e,0
586,1,BB,dlefp,1,Test,7047,0,A14QUXLGHE0ABZ,4,2,e,1
587,1,worst,krlisg,1,Catch,10688,0,A14QUXLGHE0ABZ,5,2,,1
588,1,best,frotion,1,Catch,7879,0,A14QUXLGHE0ABZ,6,2,,0
589,0,GG,flad,0,Test,4710,1,A14QUXLGHE0ABZ,7,2,a,1
590,1,GB,brivg,0,Test,6788,0,A14QUXLGHE0ABZ,8,2,i,0
591,0,BG,tlag,1,Test,3117,0,A14QUXLGHE0ABZ,9,2,a,1
592,1,best,claffer,1,Catch,6152,1,A14QUXLGHE0ABZ,10,2,,1
593,1,worst,psatrl,1,Catch,5115,1,A14QUXLGHE0ABZ,11,2,,0
594,1,BB,vremg,1,Test,3107,0,A14QUXLGHE0ABZ,12,2,e,1
595,1,GB,stoosf,0,Test,3565,0,A14QUXLGHE0ABZ,13,2,oo,1
596,0,BG,zduss,1,Test,2357,0,A14QUXLGHE0ABZ,14,2,u,0
597,0,BG,shtell,1,Test,11093,1,A14QUXLGHE0ABZ,15,2,e,0
598,1,BB,zgooshp,1,Test,1818,0,A14QUXLGHE0ABZ,16,2,oo,0
599,0,BG,thnuff,1,Test,4383,1,A14QUXLGHE0ABZ,17,2,u,0
600,1,worst,zgdivl,1,Catch,2942,0,A14QUXLGHE0ABZ,18,2,,1
601,0,GG,shrin,0,Test,2444,0,A14QUXLGHE0ABZ,19,2,i,0
602,1,worst,lbifth,1,Catch,3278,0,A14QUXLGHE0ABZ,20,2,,1
603,1,BB,fnoozg,1,Test,2896,0,A14QUXLGHE0ABZ,21,2,oo,1
604,1,best,spellion,1,Catch,3342,1,A14QUXLGHE0ABZ,22,2,,0
605,1,GB,snopk,0,Test,4301,1,A14QUXLGHE0ABZ,23,2,o,1
606,1,best,bressic,1,Catch,4814,0,A14QUXLGHE0ABZ,24,2,,0
607,0,GG,spog,0,Test,2790,1,A14QUXLGHE0ABZ,25,2,o,1
608,0,BG,vlat,1,Test,2589,0,A14QUXLGHE0ABZ,26,2,a,0
609,1,BB,thmog,1,Test,1885,1,A14QUXLGHE0ABZ,27,2,o,0
610,0,BG,fmeck,1,Test,5215,0,A14QUXLGHE0ABZ,28,2,e,0
611,1,worst,wlramr,1,Catch,4555,0,A14QUXLGHE0ABZ,29,2,,0
612,1,best,merly,1,Catch,2432,1,A14QUXLGHE0ABZ,30,2,,1
613,0,GG,skaff,0,Test,2978,1,A14QUXLGHE0ABZ,31,2,a,0
614,1,GB,glishf,0,Test,5214,0,A14QUXLGHE0ABZ,32,2,i,0
615,1,best,dellous,1,Catch,3366,0,A14QUXLGHE0ABZ,33,2,,0
616,1,GB,stroothf,0,Test,3005,1,A14QUXLGHE0ABZ,34,2,oo,1
617,1,BB,shkuzv,1,Test,2326,0,A14QUXLGHE0ABZ,35,2,u,0
618,0,GG,frim,0,Test,2495,0,A14QUXLGHE0ABZ,36,2,i,0
619,1,worst,tmoz,1,Catch,3815,1,A14QUXLGHE0ABZ,37,2,,1
775,1,worst,lbifth,1,Catch,4286,0,A16U9GBEOQ9AFB,2,2,,1
776,0,GG,frim,0,Test,2499,1,A16U9GBEOQ9AFB,3,2,i,1
777,1,BB,vremg,1,Test,3214,0,A16U9GBEOQ9AFB,4,2,e,1
778,1,best,claffer,1,Catch,1590,1,A16U9GBEOQ9AFB,5,2,,1
779,1,GB,brivg,0,Test,3662,0,A16U9GBEOQ9AFB,6,2,i,1
780,1,GB,snopk,0,Test,3318,0,A16U9GBEOQ9AFB,7,2,o,0
781,1,worst,krlisg,1,Catch,4619,1,A16U9GBEOQ9AFB,8,2,,0
782,0,BG,shtell,1,Test,3063,1,A16U9GBEOQ9AFB,9,2,e,0
783,1,worst,wlramr,1,Catch,5307,0,A16U9GBEOQ9AFB,10,2,,1
784,1,GB,stoosf,0,Test,6288,1,A16U9GBEOQ9AFB,11,2,oo,0
785,0,BG,thnuff,1,Test,10485,0,A16U9GBEOQ9AFB,12,2,u,1
786,0,GG,skaff,0,Test,2895,0,A16U9GBEOQ9AFB,13,2,a,0
787,1,GB,glishf,0,Test,2518,0,A16U9GBEOQ9AFB,14,2,i,1
788,0,BG,tlag,1,Test,3662,0,A16U9GBEOQ9AFB,15,2,a,1
789,1,best,spellion,1,Catch,6514,1,A16U9GBEOQ9AFB,16,2,,1
790,1,best,bressic,1,Catch,2303,0,A16U9GBEOQ9AFB,17,2,,0
791,1,BB,zgooshp,1,Test,3238,0,A16U9GBEOQ9AFB,18,2,oo,1
792,1,GB,skrebg,0,Test,2487,0,A16U9GBEOQ9AFB,19,2,e,0
793,0,GG,spog,0,Test,1654,1,A16U9GBEOQ9AFB,20,2,o,1
794,0,BG,zduss,1,Test,2526,1,A16U9GBEOQ9AFB,21,2,u,0
795,0,BG,fmeck,1,Test,2590,0,A16U9GBEOQ9AFB,22,2,e,1
796,1,BB,shkuzv,1,Test,2110,0,A16U9GBEOQ9AFB,23,2,u,1
797,1,best,frotion,1,Catch,1726,1,A16U9GBEOQ9AFB,24,2,,1
798,1,best,merly,1,Catch,1622,1,A16U9GBEOQ9AFB,25,2,,1
799,0,GG,flad,0,Test,1510,1,A16U9GBEOQ9AFB,26,2,a,0
800,0,GG,bloss,0,Test,1262,1,A16U9GBEOQ9AFB,27,2,o,1
801,1,worst,psatrl,1,Catch,4653,1,A16U9GBEOQ9AFB,28,2,,0
802,1,BB,dlefp,1,Test,3335,0,A16U9GBEOQ9AFB,29,2,e,0
803,1,worst,tmoz,1,Catch,3790,0,A16U9GBEOQ9AFB,30,2,,1
804,0,BG,vlat,1,Test,2055,1,A16U9GBEOQ9AFB,31,2,a,1
805,0,GG,shrin,0,Test,1550,1,A16U9GBEOQ9AFB,32,2,i,0
806,1,best,dellous,1,Catch,1439,1,A16U9GBEOQ9AFB,33,2,,1
807,1,BB,fnoozg,1,Test,18657,0,A16U9GBEOQ9AFB,34,2,oo,1
808,1,GB,stroothf,0,Test,2582,0,A16U9GBEOQ9AFB,35,2,oo,1
809,1,BB,thmog,1,Test,3638,0,A16U9GBEOQ9AFB,36,2,o,0
810,1,worst,zgdivl,1,Catch,2327,0,A16U9GBEOQ9AFB,37,2,,1
936,1,worst,psatrl,1,Catch,5626,0,A17MDKYW97KPKF,2,3,,0
937,1,best,bressic,1,Catch,5271,1,A17MDKYW97KPKF,3,3,,0
938,1,best,claffer,1,Catch,6900,0,A17MDKYW97KPKF,4,3,,0
939,1,BB,vlathp,1,Test,6702,0,A17MDKYW97KPKF,5,3,a,0
940,0,BG,thloo,1,Test,3638,1,A17MDKYW97KPKF,6,3,oo,1
941,1,worst,wlramr,1,Catch,1286,1,A17MDKYW97KPKF,7,3,,1
942,0,GG,splot,0,Test,4678,1,A17MDKYW97KPKF,8,3,o,0
943,1,GB,shritp,0,Test,1622,1,A17MDKYW97KPKF,9,3,i,0
944,0,BG,zmock,1,Test,1590,0,A17MDKYW97KPKF,10,3,o,0
945,1,BB,tlav,1,Test,1244,0,A17MDKYW97KPKF,11,3,a,0
946,1,worst,tmoz,1,Catch,1005,0,A17MDKYW97KPKF,12,3,,0
947,0,GG,grun,0,Test,1199,0,A17MDKYW97KPKF,13,3,u,1
948,1,GB,frid,0,Test,1517,0,A17MDKYW97KPKF,14,3,i,1
949,0,GG,throoz,0,Test,2637,1,A17MDKYW97KPKF,15,3,oo,1
950,0,GG,klep,0,Test,1645,0,A17MDKYW97KPKF,16,3,e,1
951,1,BB,zdumth,1,Test,1502,0,A17MDKYW97KPKF,17,3,u,1
952,0,BG,srid,1,Test,1125,0,A17MDKYW97KPKF,18,3,i,0
953,1,worst,zgdivl,1,Catch,1190,0,A17MDKYW97KPKF,19,3,,1
954,1,best,spellion,1,Catch,1726,1,A17MDKYW97KPKF,20,3,,0
955,0,BG,vmep,1,Test,1885,1,A17MDKYW97KPKF,21,3,e,1
956,1,BB,fmen,1,Test,1439,0,A17MDKYW97KPKF,22,3,e,1
957,1,GB,blofk,0,Test,1991,1,A17MDKYW97KPKF,23,3,o,0
958,1,best,frotion,1,Catch,3327,1,A17MDKYW97KPKF,24,3,,1
959,1,best,dellous,1,Catch,1301,1,A17MDKYW97KPKF,25,3,,1
960,1,GB,skashk,0,Test,1878,0,A17MDKYW97KPKF,26,3,a,1
961,1,GB,spoz,0,Test,1358,0,A17MDKYW97KPKF,27,3,o,1
962,1,BB,thnukp,1,Test,1118,0,A17MDKYW97KPKF,28,3,u,1
963,0,BG,hrool,1,Test,1294,0,A17MDKYW97KPKF,29,3,oo,0
964,0,GG,sle,0,Test,1766,1,A17MDKYW97KPKF,30,3,e,1
965,1,worst,lbifth,1,Catch,1158,0,A17MDKYW97KPKF,31,3,,1
966,1,GB,flathk,0,Test,1782,0,A17MDKYW97KPKF,32,3,a,1
967,1,BB,shtefsh,1,Test,1774,0,A17MDKYW97KPKF,33,3,e,1
968,0,GG,troom,0,Test,886,1,A17MDKYW97KPKF,34,3,oo,1
969,1,best,merly,1,Catch,2175,1,A17MDKYW97KPKF,35,3,,0
970,1,worst,krlisg,1,Catch,1804,0,A17MDKYW97KPKF,36,3,,1
971,0,BG,shpizz,1,Test,1781,1,A17MDKYW97KPKF,37,3,i,1
1135,1,worst,lbifth,1,Catch,9324,0,A19W7Z4QD4UVFC,2,0,,0
1136,1,worst,krlisg,1,Catch,10478,0,A19W7Z4QD4UVFC,3,0,,0
1137,1,GB,trooshp,0,Test,9602,1,A19W7Z4QD4UVFC,4,0,oo,0
1138,0,BG,shlaff,1,Test,2317,1,A19W7Z4QD4UVFC,5,0,a,0
1139,1,BB,vmebg,1,Test,4782,0,A19W7Z4QD4UVFC,6,0,e,0
1140,1,best,frotion,1,Catch,4078,1,A19W7Z4QD4UVFC,7,0,,0
1141,1,best,merly,1,Catch,4427,1,A19W7Z4QD4UVFC,8,0,,1
1142,0,BG,vnad,1,Test,5183,0,A19W7Z4QD4UVFC,9,0,a,1
1143,1,worst,wlramr,1,Catch,5659,0,A19W7Z4QD4UVFC,10,0,,0
1144,1,BB,zmopk,1,Test,7828,0,A19W7Z4QD4UVFC,11,0,o,1
1145,1,BB,shpivg,1,Test,9996,0,A19W7Z4QD4UVFC,12,0,i,1
1146,0,GG,swuff,0,Test,4220,1,A19W7Z4QD4UVFC,13,0,u,0
1147,1,worst,psatrl,1,Catch,6642,0,A19W7Z4QD4UVFC,14,0,,0
1148,1,GB,gruzv,0,Test,9915,0,A19W7Z4QD4UVFC,15,0,u,1
1149,0,GG,drell,0,Test,6748,1,A19W7Z4QD4UVFC,16,0,e,0
1150,1,worst,tmoz,1,Catch,8187,0,A19W7Z4QD4UVFC,17,0,,1
1151,1,best,claffer,1,Catch,3106,1,A19W7Z4QD4UVFC,18,0,,1
1152,0,BG,lrim,1,Test,3307,1,A19W7Z4QD4UVFC,19,0,i,1
1153,0,GG,plag,0,Test,4264,1,A19W7Z4QD4UVFC,20,0,a,0
1154,0,BG,zboss,1,Test,3752,0,A19W7Z4QD4UVFC,21,0,o,0
1155,0,BG,znin,1,Test,6435,0,A19W7Z4QD4UVFC,22,0,i,1
1156,1,best,dellous,1,Catch,4593,1,A19W7Z4QD4UVFC,23,0,,0
1157,1,best,bressic,1,Catch,8778,1,A19W7Z4QD4UVFC,24,0,,1
1158,1,GB,slemg,0,Test,9575,0,A19W7Z4QD4UVFC,25,0,e,1
1159,1,best,spellion,1,Catch,12095,1,A19W7Z4QD4UVFC,26,0,,0
1160,0,GG,pruss,0,Test,5867,1,A19W7Z4QD4UVFC,27,0,u,0
1161,1,GB,splog,0,Test,3762,0,A19W7Z4QD4UVFC,28,0,o,1
1162,0,GG,krat,0,Test,8000,1,A19W7Z4QD4UVFC,29,0,a,1
1163,0,BG,shnog,1,Test,5059,1,A19W7Z4QD4UVFC,30,0,o,0
1164,0,GG,smeck,0,Test,3448,1,A19W7Z4QD4UVFC,31,0,e,0
1165,1,GB,throozg,0,Test,8443,1,A19W7Z4QD4UVFC,32,0,oo,1
1166,1,BB,srishf,1,Test,4266,0,A19W7Z4QD4UVFC,33,0,i,1
1167,1,GB,klefp,0,Test,12890,0,A19W7Z4QD4UVFC,34,0,e,1
1168,1,BB,hroothf,1,Test,5721,0,A19W7Z4QD4UVFC,35,0,oo,0
1169,1,BB,thloosf,1,Test,2322,0,A19W7Z4QD4UVFC,36,0,oo,0
1170,1,worst,zgdivl,1,Catch,4250,0,A19W7Z4QD4UVFC,37,0,,1
1749,0,GG,glid,0,Test,15316,1,A1F8MOWCCVDIH2,2,1,i,1
1750,1,BB,zbofk,1,Test,5822,0,A1F8MOWCCVDIH2,3,1,o,1
1751,1,worst,tmoz,1,Catch,3348,0,A1F8MOWCCVDIH2,4,1,,1
1752,0,GG,skrep,0,Test,2428,1,A1F8MOWCCVDIH2,5,1,e,1
1753,0,BG,zgoom,1,Test,2459,0,A1F8MOWCCVDIH2,6,1,oo,1
1754,1,BB,shlashk,1,Test,2244,1,A1F8MOWCCVDIH2,7,1,a,1
1755,0,GG,snock,0,Test,3544,1,A1F8MOWCCVDIH2,8,1,o,0
1756,1,GB,swukp,0,Test,4667,1,A1F8MOWCCVDIH2,9,1,u,1
1757,1,BB,znitp,1,Test,3669,0,A1F8MOWCCVDIH2,10,1,i,0
1758,1,best,claffer,1,Catch,2379,1,A1F8MOWCCVDIH2,11,1,,1
1759,0,BG,vre,1,Test,6132,1,A1F8MOWCCVDIH2,12,1,e,1
1760,1,GB,prumth,0,Test,2679,1,A1F8MOWCCVDIH2,13,1,u,0
1761,1,best,bressic,1,Catch,2056,1,A1F8MOWCCVDIH2,14,1,,0
1762,0,BG,dlep,1,Test,3389,1,A1F8MOWCCVDIH2,15,1,e,1
1763,0,GG,strool,0,Test,1851,1,A1F8MOWCCVDIH2,16,1,oo,0
1764,0,BG,fnooz,1,Test,4545,0,A1F8MOWCCVDIH2,17,1,oo,0
1765,1,best,frotion,1,Catch,1982,1,A1F8MOWCCVDIH2,18,1,,1
1766,1,worst,psatrl,1,Catch,2646,0,A1F8MOWCCVDIH2,19,1,,1
1767,1,GB,plav,0,Test,2221,0,A1F8MOWCCVDIH2,20,1,a,1
1768,1,worst,krlisg,1,Catch,2136,0,A1F8MOWCCVDIH2,21,1,,0
1769,1,GB,smen,0,Test,2793,0,A1F8MOWCCVDIH2,22,1,e,1
1770,1,BB,shnoz,1,Test,5295,0,A1F8MOWCCVDIH2,23,1,o,0
1771,1,BB,lrid,1,Test,8196,0,A1F8MOWCCVDIH2,24,1,i,1
1772,0,BG,shkun,1,Test,6239,1,A1F8MOWCCVDIH2,25,1,u,0
1773,1,GB,drefsh,0,Test,4549,0,A1F8MOWCCVDIH2,26,1,e,1
1774,1,worst,wlramr,1,Catch,2054,0,A1F8MOWCCVDIH2,27,1,,1
1775,0,BG,thmot,1,Test,3226,1,A1F8MOWCCVDIH2,28,1,o,1
1776,1,worst,zgdivl,1,Catch,2369,0,A1F8MOWCCVDIH2,29,1,,0
1777,0,GG,stoo,0,Test,1837,1,A1F8MOWCCVDIH2,30,1,oo,0
1778,1,best,dellous,1,Catch,2927,1,A1F8MOWCCVDIH2,31,1,,1
1779,1,best,merly,1,Catch,1724,1,A1F8MOWCCVDIH2,32,1,,1
1780,0,GG,brizz,0,Test,1644,1,A1F8MOWCCVDIH2,33,1,i,1
1781,1,worst,lbifth,1,Catch,3284,0,A1F8MOWCCVDIH2,34,1,,0
1782,1,best,spellion,1,Catch,2223,1,A1F8MOWCCVDIH2,35,1,,1
1783,1,GB,krathp,0,Test,7337,1,A1F8MOWCCVDIH2,36,1,a,0
1784,1,BB,vnathk,1,Test,1670,0,A1F8MOWCCVDIH2,37,1,a,0
1793,1,worst,zgdivl,1,Catch,9586,0,A1FTKZ4YTARN6,2,3,,0
1794,0,BG,shpizz,1,Test,2211,0,A1FTKZ4YTARN6,3,3,i,1
1795,1,BB,tlav,1,Test,1947,0,A1FTKZ4YTARN6,4,3,a,0
1796,1,worst,lbifth,1,Catch,2731,0,A1FTKZ4YTARN6,5,3,,1
1797,1,GB,frid,0,Test,2000,0,A1FTKZ4YTARN6,6,3,i,1
1798,1,GB,spoz,0,Test,1941,0,A1FTKZ4YTARN6,7,3,o,0
1799,0,BG,vmep,1,Test,1695,0,A1FTKZ4YTARN6,8,3,e,0
1800,1,best,claffer,1,Catch,1565,1,A1FTKZ4YTARN6,9,3,,0
1801,1,best,frotion,1,Catch,2212,1,A1FTKZ4YTARN6,10,3,,1
1802,0,GG,troom,0,Test,1458,1,A1FTKZ4YTARN6,11,3,oo,0
1803,1,GB,shritp,0,Test,1588,0,A1FTKZ4YTARN6,12,3,i,1
1804,1,GB,skashk,0,Test,2341,0,A1FTKZ4YTARN6,13,3,a,0
1805,1,worst,wlramr,1,Catch,1586,0,A1FTKZ4YTARN6,14,3,,0
1806,1,GB,blofk,0,Test,1741,0,A1FTKZ4YTARN6,15,3,o,0
1807,0,GG,grun,0,Test,1787,1,A1FTKZ4YTARN6,16,3,u,1
1808,1,BB,shtefsh,1,Test,1925,0,A1FTKZ4YTARN6,17,3,e,0
1809,1,worst,tmoz,1,Catch,1622,0,A1FTKZ4YTARN6,18,3,,1
1810,0,BG,hrool,1,Test,1735,0,A1FTKZ4YTARN6,19,3,oo,1
1811,0,BG,srid,1,Test,1677,0,A1FTKZ4YTARN6,20,3,i,1
1812,1,BB,zdumth,1,Test,1495,0,A1FTKZ4YTARN6,21,3,u,1
1813,1,BB,fmen,1,Test,1901,0,A1FTKZ4YTARN6,22,3,e,0
1814,0,GG,klep,0,Test,4252,1,A1FTKZ4YTARN6,23,3,e,0
1815,1,BB,thnukp,1,Test,1602,0,A1FTKZ4YTARN6,24,3,u,0
1816,1,worst,krlisg,1,Catch,1674,0,A1FTKZ4YTARN6,25,3,,1
1817,1,worst,psatrl,1,Catch,1756,0,A1FTKZ4YTARN6,26,3,,1
1818,1,best,merly,1,Catch,1766,1,A1FTKZ4YTARN6,27,3,,1
1819,1,best,dellous,1,Catch,1782,1,A1FTKZ4YTARN6,28,3,,1
1820,0,GG,sle,0,Test,1863,1,A1FTKZ4YTARN6,29,3,e,1
1821,1,best,bressic,1,Catch,1784,1,A1FTKZ4YTARN6,30,3,,1
1822,1,BB,vlathp,1,Test,1569,0,A1FTKZ4YTARN6,31,3,a,1
1823,0,BG,thloo,1,Test,1482,0,A1FTKZ4YTARN6,32,3,oo,1
1824,0,BG,zmock,1,Test,1480,0,A1FTKZ4YTARN6,33,3,o,0
1825,1,best,spellion,1,Catch,1518,1,A1FTKZ4YTARN6,34,3,,0
1826,0,GG,throoz,0,Test,1618,0,A1FTKZ4YTARN6,35,3,oo,0
1827,0,GG,splot,0,Test,1525,1,A1FTKZ4YTARN6,36,3,o,1
1828,1,GB,flathk,0,Test,1939,0,A1FTKZ4YTARN6,37,3,a,0
1837,1,worst,psatrl,1,Catch,12908,0,A1G2Y47H9V5Q70,2,1,,0
1838,1,GB,plav,0,Test,10418,0,A1G2Y47H9V5Q70,3,1,a,1
1839,1,BB,vnathk,1,Test,4783,0,A1G2Y47H9V5Q70,4,1,a,1
1840,1,GB,smen,0,Test,2297,1,A1G2Y47H9V5Q70,5,1,e,0
1841,1,BB,shlashk,1,Test,7521,0,A1G2Y47H9V5Q70,6,1,a,0
1842,1,worst,zgdivl,1,Catch,4144,0,A1G2Y47H9V5Q70,7,1,,1
1843,1,BB,shnoz,1,Test,3073,0,A1G2Y47H9V5Q70,8,1,o,1
1844,1,worst,tmoz,1,Catch,2914,0,A1G2Y47H9V5Q70,9,1,,1
1845,1,best,dellous,1,Catch,4374,1,A1G2Y47H9V5Q70,10,1,,0
1846,1,worst,lbifth,1,Catch,2867,0,A1G2Y47H9V5Q70,11,1,,0
1847,0,GG,brizz,0,Test,2417,0,A1G2Y47H9V5Q70,12,1,i,1
1848,1,best,frotion,1,Catch,6822,0,A1G2Y47H9V5Q70,13,1,,0
1849,0,GG,snock,0,Test,3683,1,A1G2Y47H9V5Q70,14,1,o,0
1850,0,BG,vre,1,Test,3710,0,A1G2Y47H9V5Q70,15,1,e,1
1851,0,GG,stoo,0,Test,5143,1,A1G2Y47H9V5Q70,16,1,oo,1
1852,0,BG,fnooz,1,Test,3138,0,A1G2Y47H9V5Q70,17,1,oo,0
1853,1,worst,krlisg,1,Catch,2545,0,A1G2Y47H9V5Q70,18,1,,1
1854,1,GB,drefsh,0,Test,1947,0,A1G2Y47H9V5Q70,19,1,e,1
1855,1,BB,znitp,1,Test,2937,0,A1G2Y47H9V5Q70,20,1,i,0
1856,1,best,spellion,1,Catch,2028,1,A1G2Y47H9V5Q70,21,1,,0
1857,0,BG,zgoom,1,Test,2758,0,A1G2Y47H9V5Q70,22,1,oo,1
1858,1,GB,swukp,0,Test,2175,0,A1G2Y47H9V5Q70,23,1,u,1
1859,1,worst,wlramr,1,Catch,6055,0,A1G2Y47H9V5Q70,24,1,,0
1860,0,GG,skrep,0,Test,2680,0,A1G2Y47H9V5Q70,25,1,e,0
1861,1,GB,krathp,0,Test,2342,0,A1G2Y47H9V5Q70,26,1,a,0
1862,1,best,bressic,1,Catch,2913,0,A1G2Y47H9V5Q70,27,1,,0
1863,0,BG,thmot,1,Test,1680,0,A1G2Y47H9V5Q70,28,1,o,0
1864,1,best,merly,1,Catch,2505,1,A1G2Y47H9V5Q70,29,1,,0
1865,0,GG,glid,0,Test,4835,1,A1G2Y47H9V5Q70,30,1,i,1
1866,1,best,claffer,1,Catch,2873,1,A1G2Y47H9V5Q70,31,1,,1
1867,0,GG,strool,0,Test,4581,1,A1G2Y47H9V5Q70,32,1,oo,0
1868,0,BG,dlep,1,Test,1723,0,A1G2Y47H9V5Q70,33,1,e,0
1869,1,BB,lrid,1,Test,2195,0,A1G2Y47H9V5Q70,34,1,i,0
1870,1,BB,zbofk,1,Test,2277,0,A1G2Y47H9V5Q70,35,1,o,0
1871,0,BG,shkun,1,Test,2498,0,A1G2Y47H9V5Q70,36,1,u,0
1872,1,GB,prumth,0,Test,1807,0,A1G2Y47H9V5Q70,37,1,u,0
1926,1,GB,skrebg,0,Test,17108,0,A1GKTDO2GIRI2M,2,2,e,0
1927,0,BG,zduss,1,Test,10485,0,A1GKTDO2GIRI2M,3,2,u,1
1928,1,worst,tmoz,1,Catch,7502,0,A1GKTDO2GIRI2M,4,2,,1
1929,0,GG,bloss,0,Test,5510,1,A1GKTDO2GIRI2M,5,2,o,0
1930,1,BB,thmog,1,Test,5510,0,A1GKTDO2GIRI2M,6,2,o,0
1931,1,worst,wlramr,1,Catch,5174,0,A1GKTDO2GIRI2M,7,2,,1
1932,1,best,dellous,1,Catch,2711,1,A1GKTDO2GIRI2M,8,2,,1
1933,1,GB,stroothf,0,Test,4943,0,A1GKTDO2GIRI2M,9,2,oo,0
1934,0,GG,spog,0,Test,2767,1,A1GKTDO2GIRI2M,10,2,o,0
1935,0,BG,fmeck,1,Test,2415,0,A1GKTDO2GIRI2M,11,2,e,1
1936,1,best,merly,1,Catch,2015,1,A1GKTDO2GIRI2M,12,2,,0
1937,0,GG,skaff,0,Test,1806,1,A1GKTDO2GIRI2M,13,2,a,0
1938,1,worst,lbifth,1,Catch,2758,0,A1GKTDO2GIRI2M,14,2,,1
1939,1,best,bressic,1,Catch,2518,1,A1GKTDO2GIRI2M,15,2,,1
1940,0,BG,thnuff,1,Test,9526,0,A1GKTDO2GIRI2M,16,2,u,0
1941,0,BG,shtell,1,Test,2407,0,A1GKTDO2GIRI2M,17,2,e,1
1942,1,BB,dlefp,1,Test,5311,0,A1GKTDO2GIRI2M,18,2,e,1
1943,1,best,frotion,1,Catch,3887,1,A1GKTDO2GIRI2M,19,2,,1
1944,1,GB,stoosf,0,Test,3414,0,A1GKTDO2GIRI2M,20,2,oo,1
1945,1,worst,zgdivl,1,Catch,2103,0,A1GKTDO2GIRI2M,21,2,,0
1946,1,BB,zgooshp,1,Test,2207,0,A1GKTDO2GIRI2M,22,2,oo,1
1947,1,GB,snopk,0,Test,6127,0,A1GKTDO2GIRI2M,23,2,o,1
1948,1,BB,shkuzv,1,Test,3255,0,A1GKTDO2GIRI2M,24,2,u,0
1949,0,GG,frim,0,Test,2135,1,A1GKTDO2GIRI2M,25,2,i,1
1950,1,best,spellion,1,Catch,1799,1,A1GKTDO2GIRI2M,26,2,,1
1951,1,worst,psatrl,1,Catch,1591,0,A1GKTDO2GIRI2M,27,2,,1
1952,1,BB,vremg,1,Test,1471,0,A1GKTDO2GIRI2M,28,2,e,1
1953,1,GB,brivg,0,Test,2007,0,A1GKTDO2GIRI2M,29,2,i,1
1954,0,BG,vlat,1,Test,7135,0,A1GKTDO2GIRI2M,30,2,a,0
1955,0,BG,tlag,1,Test,2135,0,A1GKTDO2GIRI2M,31,2,a,1
1956,1,best,claffer,1,Catch,1879,1,A1GKTDO2GIRI2M,32,2,,1
1957,1,BB,fnoozg,1,Test,1567,0,A1GKTDO2GIRI2M,33,2,oo,1
1958,0,GG,shrin,0,Test,1615,1,A1GKTDO2GIRI2M,34,2,i,1
1959,1,worst,krlisg,1,Catch,1487,1,A1GKTDO2GIRI2M,35,2,,0
1960,0,GG,flad,0,Test,2111,1,A1GKTDO2GIRI2M,36,2,a,0
1961,1,GB,glishf,0,Test,1647,0,A1GKTDO2GIRI2M,37,2,i,0
2089,1,worst,lbifth,1,Catch,15306,0,A1HO3Z29A3N7K5,2,3,,1
2090,0,GG,sle,0,Test,4505,1,A1HO3Z29A3N7K5,3,3,e,0
2091,0,GG,klep,0,Test,2236,1,A1HO3Z29A3N7K5,4,3,e,1
2092,1,BB,zdumth,1,Test,1357,0,A1HO3Z29A3N7K5,5,3,u,1
2093,1,best,claffer,1,Catch,2209,1,A1HO3Z29A3N7K5,6,3,,1
2094,1,best,merly,1,Catch,1825,1,A1HO3Z29A3N7K5,7,3,,1
2095,1,GB,frid,0,Test,2269,0,A1HO3Z29A3N7K5,8,3,i,0
2096,0,BG,thloo,1,Test,1615,0,A1HO3Z29A3N7K5,9,3,oo,1
2097,0,BG,vmep,1,Test,1339,0,A1HO3Z29A3N7K5,10,3,e,0
2098,1,BB,tlav,1,Test,1651,0,A1HO3Z29A3N7K5,11,3,a,1
2099,1,GB,blofk,0,Test,1832,0,A1HO3Z29A3N7K5,12,3,o,0
2100,1,best,dellous,1,Catch,2092,0,A1HO3Z29A3N7K5,13,3,,0
2101,1,best,frotion,1,Catch,1943,0,A1HO3Z29A3N7K5,14,3,,0
2102,1,BB,fmen,1,Test,1451,0,A1HO3Z29A3N7K5,15,3,e,1
2103,0,BG,hrool,1,Test,1415,0,A1HO3Z29A3N7K5,16,3,oo,0
2104,0,GG,troom,0,Test,1700,0,A1HO3Z29A3N7K5,17,3,oo,1
2105,0,BG,shpizz,1,Test,1709,0,A1HO3Z29A3N7K5,18,3,i,0
2106,1,worst,tmoz,1,Catch,1340,0,A1HO3Z29A3N7K5,19,3,,1
2107,0,GG,splot,0,Test,2330,0,A1HO3Z29A3N7K5,20,3,o,1
2108,1,BB,vlathp,1,Test,1391,0,A1HO3Z29A3N7K5,21,3,a,0
2109,1,BB,shtefsh,1,Test,1421,0,A1HO3Z29A3N7K5,22,3,e,1
2110,1,worst,krlisg,1,Catch,2234,0,A1HO3Z29A3N7K5,23,3,,0
2111,1,worst,zgdivl,1,Catch,1318,0,A1HO3Z29A3N7K5,24,3,,0
2112,0,GG,throoz,0,Test,1427,0,A1HO3Z29A3N7K5,25,3,oo,0
2113,1,BB,thnukp,1,Test,1356,0,A1HO3Z29A3N7K5,26,3,u,0
2114,1,GB,shritp,0,Test,1208,0,A1HO3Z29A3N7K5,27,3,i,0
2115,1,GB,flathk,0,Test,1757,0,A1HO3Z29A3N7K5,28,3,a,1
2116,1,best,bressic,1,Catch,1623,0,A1HO3Z29A3N7K5,29,3,,0
2117,0,BG,zmock,1,Test,1216,0,A1HO3Z29A3N7K5,30,3,o,1
2118,1,GB,skashk,0,Test,1328,0,A1HO3Z29A3N7K5,31,3,a,1
2119,0,BG,srid,1,Test,1455,0,A1HO3Z29A3N7K5,32,3,i,0
2120,1,best,spellion,1,Catch,2184,0,A1HO3Z29A3N7K5,33,3,,0
2121,1,GB,spoz,0,Test,1360,0,A1HO3Z29A3N7K5,34,3,o,1
2122,1,worst,wlramr,1,Catch,1256,0,A1HO3Z29A3N7K5,35,3,,1
2123,1,worst,psatrl,1,Catch,1480,0,A1HO3Z29A3N7K5,36,3,,0
2124,0,GG,grun,0,Test,2753,1,A1HO3Z29A3N7K5,37,3,u,0
2251,1,worst,tmoz,1,Catch,7830,0,A1J21DM2Z753X4,2,1,,0
2252,1,worst,psatrl,1,Catch,2211,0,A1J21DM2Z753X4,3,1,,0
2253,1,BB,vnathk,1,Test,3424,1,A1J21DM2Z753X4,4,1,a,1
2254,0,BG,shkun,1,Test,5456,0,A1J21DM2Z753X4,5,1,u,1
2255,1,worst,lbifth,1,Catch,3720,0,A1J21DM2Z753X4,6,1,,1
2256,0,GG,skrep,0,Test,3519,1,A1J21DM2Z753X4,7,1,e,0
2257,0,GG,glid,0,Test,4072,0,A1J21DM2Z753X4,8,1,i,1
2258,1,BB,shlashk,1,Test,6177,0,A1J21DM2Z753X4,9,1,a,0
2259,1,best,bressic,1,Catch,5778,0,A1J21DM2Z753X4,10,1,,0
2260,0,BG,dlep,1,Test,3463,0,A1J21DM2Z753X4,11,1,e,1
2261,1,BB,zbofk,1,Test,3850,0,A1J21DM2Z753X4,12,1,o,0
2262,1,best,spellion,1,Catch,2976,1,A1J21DM2Z753X4,13,1,,0
2263,0,GG,stoo,0,Test,2933,0,A1J21DM2Z753X4,14,1,oo,1
2264,1,GB,prumth,0,Test,3090,0,A1J21DM2Z753X4,15,1,u,1
2265,1,best,dellous,1,Catch,4529,0,A1J21DM2Z753X4,16,1,,1
2266,0,BG,zgoom,1,Test,3426,0,A1J21DM2Z753X4,17,1,oo,0
2267,1,worst,krlisg,1,Catch,3210,0,A1J21DM2Z753X4,18,1,,1
2268,0,GG,snock,0,Test,4009,1,A1J21DM2Z753X4,19,1,o,1
2269,0,BG,fnooz,1,Test,2458,0,A1J21DM2Z753X4,20,1,oo,0
2270,1,GB,drefsh,0,Test,2906,0,A1J21DM2Z753X4,21,1,e,1
2271,1,GB,plav,0,Test,2722,0,A1J21DM2Z753X4,22,1,a,1
2272,1,GB,krathp,0,Test,3879,0,A1J21DM2Z753X4,23,1,a,0
2273,0,GG,strool,0,Test,2650,1,A1J21DM2Z753X4,24,1,oo,0
2274,1,BB,lrid,1,Test,2562,0,A1J21DM2Z753X4,25,1,i,1
2275,1,worst,wlramr,1,Catch,3530,0,A1J21DM2Z753X4,26,1,,1
2276,0,BG,thmot,1,Test,3201,0,A1J21DM2Z753X4,27,1,o,0
2277,1,best,frotion,1,Catch,3852,1,A1J21DM2Z753X4,28,1,,1
2278,1,BB,znitp,1,Test,1973,0,A1J21DM2Z753X4,29,1,i,1
2279,1,best,merly,1,Catch,2434,1,A1J21DM2Z753X4,30,1,,0
2280,0,BG,vre,1,Test,126805,0,A1J21DM2Z753X4,31,1,e,0
2281,1,worst,zgdivl,1,Catch,2198,0,A1J21DM2Z753X4,32,1,,0
2282,1,BB,shnoz,1,Test,1682,0,A1J21DM2Z753X4,33,1,o,0
2283,1,GB,swukp,0,Test,2025,0,A1J21DM2Z753X4,34,1,u,1
2284,1,GB,smen,0,Test,2091,0,A1J21DM2Z753X4,35,1,e,0
2285,0,GG,brizz,0,Test,1591,1,A1J21DM2Z753X4,36,1,i,0
2286,1,best,claffer,1,Catch,2202,0,A1J21DM2Z753X4,37,1,,1
2376,1,GB,drefsh,0,Test,18695,0,A1JO01TWBHEN85,2,1,e,0
2377,1,best,spellion,1,Catch,8077,1,A1JO01TWBHEN85,3,1,,0
2378,1,GB,krathp,0,Test,4889,0,A1JO01TWBHEN85,4,1,a,0
2379,0,GG,strool,0,Test,10631,1,A1JO01TWBHEN85,5,1,oo,0
2380,0,GG,stoo,0,Test,4856,1,A1JO01TWBHEN85,6,1,oo,1
2381,1,worst,zgdivl,1,Catch,7964,0,A1JO01TWBHEN85,7,1,,1
2382,1,worst,krlisg,1,Catch,6845,0,A1JO01TWBHEN85,8,1,,0
2383,0,BG,vre,1,Test,6122,0,A1JO01TWBHEN85,9,1,e,0
2384,1,BB,shnoz,1,Test,3929,0,A1JO01TWBHEN85,10,1,o,1
2385,0,GG,snock,0,Test,4420,1,A1JO01TWBHEN85,11,1,o,1
2386,1,best,frotion,1,Catch,3067,1,A1JO01TWBHEN85,12,1,,0
2387,0,BG,dlep,1,Test,7146,1,A1JO01TWBHEN85,13,1,e,1
2388,1,BB,lrid,1,Test,7146,0,A1JO01TWBHEN85,14,1,i,0
2389,0,GG,brizz,0,Test,2083,1,A1JO01TWBHEN85,15,1,i,0
2390,1,best,dellous,1,Catch,2303,1,A1JO01TWBHEN85,16,1,,0
2391,1,GB,prumth,0,Test,7375,1,A1JO01TWBHEN85,17,1,u,0
2392,1,BB,zbofk,1,Test,2680,0,A1JO01TWBHEN85,18,1,o,0
2393,1,best,merly,1,Catch,2036,1,A1JO01TWBHEN85,19,1,,1
2394,1,GB,smen,0,Test,2663,0,A1JO01TWBHEN85,20,1,e,1
2395,1,best,bressic,1,Catch,2483,1,A1JO01TWBHEN85,21,1,,1
2396,1,BB,vnathk,1,Test,2902,0,A1JO01TWBHEN85,22,1,a,1
2397,0,BG,shkun,1,Test,3101,0,A1JO01TWBHEN85,23,1,u,0
2398,0,GG,glid,0,Test,1518,1,A1JO01TWBHEN85,24,1,i,0
2399,1,worst,lbifth,1,Catch,5534,0,A1JO01TWBHEN85,25,1,,1
2400,1,GB,plav,0,Test,2662,0,A1JO01TWBHEN85,26,1,a,0
2401,0,BG,zgoom,1,Test,5065,0,A1JO01TWBHEN85,27,1,oo,0
2402,1,BB,shlashk,1,Test,5700,0,A1JO01TWBHEN85,28,1,a,1
2403,1,GB,swukp,0,Test,3442,0,A1JO01TWBHEN85,29,1,u,1
2404,1,best,claffer,1,Catch,2451,1,A1JO01TWBHEN85,30,1,,1
2405,1,worst,tmoz,1,Catch,4529,0,A1JO01TWBHEN85,31,1,,1
2406,1,worst,wlramr,1,Catch,7550,0,A1JO01TWBHEN85,32,1,,0
2407,0,BG,fnooz,1,Test,2837,0,A1JO01TWBHEN85,33,1,oo,0
2408,0,GG,skrep,0,Test,5047,0,A1JO01TWBHEN85,34,1,e,1
2409,1,BB,znitp,1,Test,3158,0,A1JO01TWBHEN85,35,1,i,0
2410,0,BG,thmot,1,Test,2848,1,A1JO01TWBHEN85,36,1,o,0
2411,1,worst,psatrl,1,Catch,5970,1,A1JO01TWBHEN85,37,1,,0
2457,1,GB,prumth,0,Test,3267,0,A1KB7ZWSRGVLV1,2,1,u,0
2458,0,BG,zgoom,1,Test,2072,0,A1KB7ZWSRGVLV1,3,1,oo,0
2459,1,worst,zgdivl,1,Catch,1573,0,A1KB7ZWSRGVLV1,4,1,,0
2460,1,GB,plav,0,Test,2749,0,A1KB7ZWSRGVLV1,5,1,a,1
2461,1,best,frotion,1,Catch,1613,1,A1KB7ZWSRGVLV1,6,1,,1
2462,1,GB,drefsh,0,Test,1533,0,A1KB7ZWSRGVLV1,7,1,e,1
2463,1,best,merly,1,Catch,1988,1,A1KB7ZWSRGVLV1,8,1,,1
2464,0,GG,snock,0,Test,2109,1,A1KB7ZWSRGVLV1,9,1,o,0
2465,1,worst,wlramr,1,Catch,1647,0,A1KB7ZWSRGVLV1,10,1,,1
2466,0,GG,strool,0,Test,1731,1,A1KB7ZWSRGVLV1,11,1,oo,0
2467,1,best,bressic,1,Catch,1565,0,A1KB7ZWSRGVLV1,12,1,,0
2468,1,worst,krlisg,1,Catch,1638,0,A1KB7ZWSRGVLV1,13,1,,1
2469,1,worst,psatrl,1,Catch,2292,0,A1KB7ZWSRGVLV1,14,1,,0
2470,1,GB,smen,0,Test,1973,0,A1KB7ZWSRGVLV1,15,1,e,1
2471,1,best,claffer,1,Catch,1869,1,A1KB7ZWSRGVLV1,16,1,,1
2472,0,BG,vre,1,Test,2845,0,A1KB7ZWSRGVLV1,17,1,e,0
2473,1,worst,tmoz,1,Catch,3406,0,A1KB7ZWSRGVLV1,18,1,,0
2474,1,BB,znitp,1,Test,3211,0,A1KB7ZWSRGVLV1,19,1,i,0
2475,1,BB,vnathk,1,Test,1806,0,A1KB7ZWSRGVLV1,20,1,a,1
2476,1,worst,lbifth,1,Catch,2877,0,A1KB7ZWSRGVLV1,21,1,,0
2477,1,BB,zbofk,1,Test,1630,0,A1KB7ZWSRGVLV1,22,1,o,1
2478,0,GG,stoo,0,Test,3155,1,A1KB7ZWSRGVLV1,23,1,oo,1
2479,0,BG,fnooz,1,Test,2309,0,A1KB7ZWSRGVLV1,24,1,oo,0
2480,0,BG,thmot,1,Test,2205,0,A1KB7ZWSRGVLV1,25,1,o,1
2481,1,best,spellion,1,Catch,3101,1,A1KB7ZWSRGVLV1,26,1,,0
2482,1,BB,shnoz,1,Test,2173,0,A1KB7ZWSRGVLV1,27,1,o,1
2483,1,GB,krathp,0,Test,1620,0,A1KB7ZWSRGVLV1,28,1,a,0
2484,0,GG,skrep,0,Test,1933,1,A1KB7ZWSRGVLV1,29,1,e,0
2485,1,best,dellous,1,Catch,1845,1,A1KB7ZWSRGVLV1,30,1,,1
2486,0,GG,brizz,0,Test,1733,1,A1KB7ZWSRGVLV1,31,1,i,0
2487,1,BB,lrid,1,Test,2126,0,A1KB7ZWSRGVLV1,32,1,i,1
2488,0,BG,shkun,1,Test,1589,0,A1KB7ZWSRGVLV1,33,1,u,0
2489,1,GB,swukp,0,Test,1526,0,A1KB7ZWSRGVLV1,34,1,u,0
2490,0,BG,dlep,1,Test,1598,0,A1KB7ZWSRGVLV1,35,1,e,0
2491,0,GG,glid,0,Test,1555,0,A1KB7ZWSRGVLV1,36,1,i,0
2492,1,BB,shlashk,1,Test,1845,0,A1KB7ZWSRGVLV1,37,1,a,0
2873,0,GG,swuff,0,Test,16188,0,A1P9OBGX73AGSL,2,0,u,0
2874,1,worst,zgdivl,1,Catch,1794,1,A1P9OBGX73AGSL,3,0,,1
2875,1,best,claffer,1,Catch,3408,1,A1P9OBGX73AGSL,4,0,,1
2876,1,BB,vmebg,1,Test,3247,0,A1P9OBGX73AGSL,5,0,e,0
2877,1,GB,splog,0,Test,1663,0,A1P9OBGX73AGSL,6,0,o,0
2878,1,BB,thloosf,1,Test,3096,0,A1P9OBGX73AGSL,7,0,oo,0
2879,1,GB,klefp,0,Test,1819,0,A1P9OBGX73AGSL,8,0,e,1
2880,1,best,merly,1,Catch,2251,1,A1P9OBGX73AGSL,9,0,,1
2881,0,GG,smeck,0,Test,2157,1,A1P9OBGX73AGSL,10,0,e,0
2882,0,BG,vnad,1,Test,1741,0,A1P9OBGX73AGSL,11,0,a,1
2883,0,GG,drell,0,Test,1517,1,A1P9OBGX73AGSL,12,0,e,1
2884,1,best,spellion,1,Catch,1081,1,A1P9OBGX73AGSL,13,0,,0
2885,0,BG,znin,1,Test,1526,0,A1P9OBGX73AGSL,14,0,i,1
2886,1,BB,shpivg,1,Test,1026,0,A1P9OBGX73AGSL,15,0,i,0
2887,0,BG,lrim,1,Test,1450,0,A1P9OBGX73AGSL,16,0,i,0
2888,1,GB,slemg,0,Test,3311,0,A1P9OBGX73AGSL,17,0,e,0
2889,1,BB,srishf,1,Test,1119,0,A1P9OBGX73AGSL,18,0,i,0
2890,0,BG,shnog,1,Test,1171,0,A1P9OBGX73AGSL,19,0,o,1
2891,0,GG,pruss,0,Test,1439,0,A1P9OBGX73AGSL,20,0,u,0
2892,1,best,bressic,1,Catch,2275,0,A1P9OBGX73AGSL,21,0,,1
2893,1,worst,lbifth,1,Catch,1217,1,A1P9OBGX73AGSL,22,0,,1
2894,1,best,dellous,1,Catch,2861,1,A1P9OBGX73AGSL,23,0,,0
2895,1,BB,hroothf,1,Test,957,0,A1P9OBGX73AGSL,24,0,oo,0
2896,1,BB,zmopk,1,Test,795,0,A1P9OBGX73AGSL,25,0,o,0
2897,1,worst,krlisg,1,Catch,1013,0,A1P9OBGX73AGSL,26,0,,0
2898,0,BG,zboss,1,Test,1104,0,A1P9OBGX73AGSL,27,0,o,0
2899,1,worst,psatrl,1,Catch,1448,0,A1P9OBGX73AGSL,28,0,,0
2900,1,GB,trooshp,0,Test,2180,1,A1P9OBGX73AGSL,29,0,oo,0
2901,0,GG,plag,0,Test,1128,0,A1P9OBGX73AGSL,30,0,a,0
2902,1,GB,throozg,0,Test,1175,0,A1P9OBGX73AGSL,31,0,oo,1
2903,1,best,frotion,1,Catch,1523,1,A1P9OBGX73AGSL,32,0,,1
2904,1,worst,tmoz,1,Catch,1841,0,A1P9OBGX73AGSL,33,0,,0
2905,0,GG,krat,0,Test,1144,1,A1P9OBGX73AGSL,34,0,a,1
2906,0,BG,shlaff,1,Test,927,0,A1P9OBGX73AGSL,35,0,a,1
2907,1,GB,gruzv,0,Test,815,0,A1P9OBGX73AGSL,36,0,u,0
2908,1,worst,wlramr,1,Catch,1007,1,A1P9OBGX73AGSL,37,0,,0
2917,0,BG,fnooz,1,Test,5973,0,A1PLN4H19MD4PX,2,1,oo,0
2918,0,GG,skrep,0,Test,1774,0,A1PLN4H19MD4PX,3,1,e,0
2919,1,best,merly,1,Catch,2694,1,A1PLN4H19MD4PX,4,1,,1
2920,0,GG,glid,0,Test,2787,1,A1PLN4H19MD4PX,5,1,i,0
2921,0,BG,vre,1,Test,2455,0,A1PLN4H19MD4PX,6,1,e,1
2922,1,BB,shlashk,1,Test,2646,0,A1PLN4H19MD4PX,7,1,a,1
2923,0,BG,thmot,1,Test,2637,0,A1PLN4H19MD4PX,8,1,o,1
2924,0,BG,zgoom,1,Test,2414,0,A1PLN4H19MD4PX,9,1,oo,0
2925,1,worst,wlramr,1,Catch,2284,0,A1PLN4H19MD4PX,10,1,,1
2926,1,worst,krlisg,1,Catch,4703,0,A1PLN4H19MD4PX,11,1,,0
2927,1,best,claffer,1,Catch,2221,1,A1PLN4H19MD4PX,12,1,,1
2928,1,GB,plav,0,Test,2602,0,A1PLN4H19MD4PX,13,1,a,0
2929,0,GG,brizz,0,Test,1977,1,A1PLN4H19MD4PX,14,1,i,1
2930,1,GB,krathp,0,Test,2035,0,A1PLN4H19MD4PX,15,1,a,1
2931,1,worst,tmoz,1,Catch,2705,0,A1PLN4H19MD4PX,16,1,,0
2932,0,BG,dlep,1,Test,4805,0,A1PLN4H19MD4PX,17,1,e,0
2933,1,best,frotion,1,Catch,2357,1,A1PLN4H19MD4PX,18,1,,1
2934,0,GG,stoo,0,Test,2796,1,A1PLN4H19MD4PX,19,1,oo,1
2935,1,best,bressic,1,Catch,2209,1,A1PLN4H19MD4PX,20,1,,0
2936,1,BB,shnoz,1,Test,2857,0,A1PLN4H19MD4PX,21,1,o,1
2937,1,GB,prumth,0,Test,4637,1,A1PLN4H19MD4PX,22,1,u,0
2938,1,worst,lbifth,1,Catch,3954,0,A1PLN4H19MD4PX,23,1,,1
2939,1,GB,smen,0,Test,4102,0,A1PLN4H19MD4PX,24,1,e,1
2940,1,worst,psatrl,1,Catch,4560,0,A1PLN4H19MD4PX,25,1,,0
2941,1,GB,drefsh,0,Test,3421,0,A1PLN4H19MD4PX,26,1,e,1
2942,1,BB,znitp,1,Test,2246,0,A1PLN4H19MD4PX,27,1,i,0
2943,1,BB,zbofk,1,Test,3111,0,A1PLN4H19MD4PX,28,1,o,0
2944,1,BB,vnathk,1,Test,5318,0,A1PLN4H19MD4PX,29,1,a,0
2945,0,GG,strool,0,Test,1624,1,A1PLN4H19MD4PX,30,1,oo,0
2946,1,BB,lrid,1,Test,2425,0,A1PLN4H19MD4PX,31,1,i,0
2947,0,GG,snock,0,Test,2363,1,A1PLN4H19MD4PX,32,1,o,1
2948,0,BG,shkun,1,Test,1962,0,A1PLN4H19MD4PX,33,1,u,1
2949,1,GB,swukp,0,Test,2503,0,A1PLN4H19MD4PX,34,1,u,0
2950,1,best,spellion,1,Catch,1888,1,A1PLN4H19MD4PX,35,1,,1
2951,1,worst,zgdivl,1,Catch,1353,0,A1PLN4H19MD4PX,36,1,,1
2952,1,best,dellous,1,Catch,2178,1,A1PLN4H19MD4PX,37,1,,0
3034,0,GG,sle,0,Test,8824,0,A1RQ4UTGUL0YWU,2,3,e,0
3035,1,GB,flathk,0,Test,3384,1,A1RQ4UTGUL0YWU,3,3,a,1
3036,1,GB,blofk,0,Test,2546,0,A1RQ4UTGUL0YWU,4,3,o,0
3037,1,GB,frid,0,Test,2076,0,A1RQ4UTGUL0YWU,5,3,i,0
3038,0,BG,thloo,1,Test,2658,1,A1RQ4UTGUL0YWU,6,3,oo,1
3039,1,best,bressic,1,Catch,3114,1,A1RQ4UTGUL0YWU,7,3,,1
3040,1,BB,shtefsh,1,Test,6510,0,A1RQ4UTGUL0YWU,8,3,e,0
3041,1,best,claffer,1,Catch,3857,1,A1RQ4UTGUL0YWU,9,3,,0
3042,1,worst,tmoz,1,Catch,2016,0,A1RQ4UTGUL0YWU,10,3,,1
3043,1,BB,zdumth,1,Test,3332,0,A1RQ4UTGUL0YWU,11,3,u,1
3044,0,BG,vmep,1,Test,2377,0,A1RQ4UTGUL0YWU,12,3,e,0
3045,1,best,frotion,1,Catch,1515,1,A1RQ4UTGUL0YWU,13,3,,0
3046,1,best,merly,1,Catch,1665,1,A1RQ4UTGUL0YWU,14,3,,0
3047,0,GG,troom,0,Test,1843,1,A1RQ4UTGUL0YWU,15,3,oo,0
3048,1,GB,spoz,0,Test,1866,0,A1RQ4UTGUL0YWU,16,3,o,1
3049,1,worst,krlisg,1,Catch,1623,0,A1RQ4UTGUL0YWU,17,3,,0
3050,1,GB,skashk,0,Test,1800,0,A1RQ4UTGUL0YWU,18,3,a,1
3051,1,GB,shritp,0,Test,3235,1,A1RQ4UTGUL0YWU,19,3,i,1
3052,0,BG,shpizz,1,Test,2748,1,A1RQ4UTGUL0YWU,20,3,i,0
3053,1,BB,tlav,1,Test,2225,0,A1RQ4UTGUL0YWU,21,3,a,0
3054,1,best,spellion,1,Catch,1490,1,A1RQ4UTGUL0YWU,22,3,,1
3055,0,BG,srid,1,Test,2763,1,A1RQ4UTGUL0YWU,23,3,i,0
3056,1,BB,thnukp,1,Test,1596,0,A1RQ4UTGUL0YWU,24,3,u,1
3057,1,BB,fmen,1,Test,1498,0,A1RQ4UTGUL0YWU,25,3,e,0
3058,0,BG,hrool,1,Test,1572,1,A1RQ4UTGUL0YWU,26,3,oo,1
3059,0,GG,grun,0,Test,1236,1,A1RQ4UTGUL0YWU,27,3,u,1
3060,1,worst,lbifth,1,Catch,1267,0,A1RQ4UTGUL0YWU,28,3,,1
3061,0,GG,splot,0,Test,1538,1,A1RQ4UTGUL0YWU,29,3,o,0
3062,1,worst,psatrl,1,Catch,1379,0,A1RQ4UTGUL0YWU,30,3,,0
3063,1,worst,wlramr,1,Catch,1411,0,A1RQ4UTGUL0YWU,31,3,,0
3064,1,best,dellous,1,Catch,1645,1,A1RQ4UTGUL0YWU,32,3,,0
3065,0,BG,zmock,1,Test,1717,1,A1RQ4UTGUL0YWU,33,3,o,1
3066,0,GG,klep,0,Test,1205,1,A1RQ4UTGUL0YWU,34,3,e,1
3067,1,BB,vlathp,1,Test,1461,0,A1RQ4UTGUL0YWU,35,3,a,1
3068,0,GG,throoz,0,Test,2267,1,A1RQ4UTGUL0YWU,36,3,oo,1
3069,1,worst,zgdivl,1,Catch,1177,0,A1RQ4UTGUL0YWU,37,3,,1
3242,1,BB,fnoozg,1,Test,13280,0,A1TL2USDKBHRVD,2,2,oo,0
3243,0,GG,frim,0,Test,3503,1,A1TL2USDKBHRVD,3,2,i,0
3244,1,GB,skrebg,0,Test,1403,0,A1TL2USDKBHRVD,4,2,e,0
3245,1,worst,krlisg,1,Catch,2971,0,A1TL2USDKBHRVD,5,2,,0
3246,0,BG,thnuff,1,Test,6738,0,A1TL2USDKBHRVD,6,2,u,1
3247,1,BB,thmog,1,Test,2210,0,A1TL2USDKBHRVD,7,2,o,0
3248,1,BB,dlefp,1,Test,2021,0,A1TL2USDKBHRVD,8,2,e,1
3249,0,BG,fmeck,1,Test,2571,0,A1TL2USDKBHRVD,9,2,e,0
3250,1,best,dellous,1,Catch,1726,1,A1TL2USDKBHRVD,10,2,,1
3251,1,best,frotion,1,Catch,1378,1,A1TL2USDKBHRVD,11,2,,1
3252,1,worst,lbifth,1,Catch,1619,0,A1TL2USDKBHRVD,12,2,,0
3253,1,best,spellion,1,Catch,1443,1,A1TL2USDKBHRVD,13,2,,0
3254,1,worst,wlramr,1,Catch,1676,0,A1TL2USDKBHRVD,14,2,,1
3255,0,BG,shtell,1,Test,2843,1,A1TL2USDKBHRVD,15,2,e,0
3256,1,best,claffer,1,Catch,1419,1,A1TL2USDKBHRVD,16,2,,0
3257,0,BG,vlat,1,Test,1652,1,A1TL2USDKBHRVD,17,2,a,0
3258,0,GG,skaff,0,Test,1636,1,A1TL2USDKBHRVD,18,2,a,1
3259,1,GB,glishf,0,Test,2827,0,A1TL2USDKBHRVD,19,2,i,1
3260,1,worst,zgdivl,1,Catch,1412,0,A1TL2USDKBHRVD,20,2,,1
3261,0,GG,bloss,0,Test,1293,1,A1TL2USDKBHRVD,21,2,o,1
3262,1,GB,stoosf,0,Test,2508,0,A1TL2USDKBHRVD,22,2,oo,0
3263,1,worst,tmoz,1,Catch,1814,0,A1TL2USDKBHRVD,23,2,,1
3264,1,BB,vremg,1,Test,58133,0,A1TL2USDKBHRVD,24,2,e,1
3265,1,GB,snopk,0,Test,2723,0,A1TL2USDKBHRVD,25,2,o,0
3266,0,GG,flad,0,Test,1434,1,A1TL2USDKBHRVD,26,2,a,1
3267,1,BB,shkuzv,1,Test,1392,0,A1TL2USDKBHRVD,27,2,u,0
3268,1,best,bressic,1,Catch,1486,1,A1TL2USDKBHRVD,28,2,,0
3269,1,GB,brivg,0,Test,1577,0,A1TL2USDKBHRVD,29,2,i,1
3270,1,worst,psatrl,1,Catch,2674,0,A1TL2USDKBHRVD,30,2,,1
3271,0,GG,spog,0,Test,1306,1,A1TL2USDKBHRVD,31,2,o,0
3272,0,GG,shrin,0,Test,1131,1,A1TL2USDKBHRVD,32,2,i,0
3273,0,BG,tlag,1,Test,3530,0,A1TL2USDKBHRVD,33,2,a,1
3274,1,best,merly,1,Catch,1715,1,A1TL2USDKBHRVD,34,2,,1
3275,1,GB,stroothf,0,Test,1940,0,A1TL2USDKBHRVD,35,2,oo,0
3276,1,BB,zgooshp,1,Test,1692,0,A1TL2USDKBHRVD,36,2,oo,1
3277,0,BG,zduss,1,Test,1501,0,A1TL2USDKBHRVD,37,2,u,0
3649,0,GG,swuff,0,Test,9177,0,A1VI0LLY8JO8XO,2,0,u,1
3650,1,worst,krlisg,1,Catch,5294,0,A1VI0LLY8JO8XO,3,0,,1
3651,1,BB,thloosf,1,Test,4394,0,A1VI0LLY8JO8XO,4,0,oo,1
3652,1,best,frotion,1,Catch,5097,1,A1VI0LLY8JO8XO,5,0,,0
3653,1,worst,zgdivl,1,Catch,5808,0,A1VI0LLY8JO8XO,6,0,,0
3654,1,BB,vmebg,1,Test,3406,0,A1VI0LLY8JO8XO,7,0,e,0
3655,1,GB,gruzv,0,Test,5554,0,A1VI0LLY8JO8XO,8,0,u,1
3656,0,GG,drell,0,Test,2496,1,A1VI0LLY8JO8XO,9,0,e,1
3657,1,best,claffer,1,Catch,2286,1,A1VI0LLY8JO8XO,10,0,,0
3658,0,GG,smeck,0,Test,4328,1,A1VI0LLY8JO8XO,11,0,e,0
3659,1,best,spellion,1,Catch,2430,1,A1VI0LLY8JO8XO,12,0,,1
3660,1,GB,slemg,0,Test,2060,0,A1VI0LLY8JO8XO,13,0,e,1
3661,1,best,dellous,1,Catch,2358,1,A1VI0LLY8JO8XO,14,0,,0
3662,0,BG,shnog,1,Test,6492,1,A1VI0LLY8JO8XO,15,0,o,1
3663,1,BB,zmopk,1,Test,2513,0,A1VI0LLY8JO8XO,16,0,o,0
3664,0,BG,znin,1,Test,1578,0,A1VI0LLY8JO8XO,17,0,i,0
3665,0,GG,plag,0,Test,1881,1,A1VI0LLY8JO8XO,18,0,a,0
3666,0,GG,krat,0,Test,2713,1,A1VI0LLY8JO8XO,19,0,a,0
3667,1,BB,srishf,1,Test,4017,0,A1VI0LLY8JO8XO,20,0,i,1
3668,0,BG,lrim,1,Test,2833,1,A1VI0LLY8JO8XO,21,0,i,1
3669,0,GG,pruss,0,Test,2532,1,A1VI0LLY8JO8XO,22,0,u,0
3670,1,GB,splog,0,Test,3921,1,A1VI0LLY8JO8XO,23,0,o,0
3671,1,worst,wlramr,1,Catch,2247,0,A1VI0LLY8JO8XO,24,0,,0
3672,1,GB,klefp,0,Test,5471,0,A1VI0LLY8JO8XO,25,0,e,1
3673,1,BB,hroothf,1,Test,4358,1,A1VI0LLY8JO8XO,26,0,oo,0
3674,1,worst,psatrl,1,Catch,4467,1,A1VI0LLY8JO8XO,27,0,,1
3675,1,worst,tmoz,1,Catch,1781,0,A1VI0LLY8JO8XO,28,0,,1
3676,1,best,merly,1,Catch,2121,1,A1VI0LLY8JO8XO,29,0,,1
3677,1,best,bressic,1,Catch,2159,1,A1VI0LLY8JO8XO,30,0,,1
3678,0,BG,zboss,1,Test,2392,1,A1VI0LLY8JO8XO,31,0,o,0
3679,0,BG,vnad,1,Test,3395,1,A1VI0LLY8JO8XO,32,0,a,0
3680,1,GB,throozg,0,Test,5720,0,A1VI0LLY8JO8XO,33,0,oo,1
3681,1,GB,trooshp,0,Test,3528,1,A1VI0LLY8JO8XO,34,0,oo,1
3682,0,BG,shlaff,1,Test,2725,1,A1VI0LLY8JO8XO,35,0,a,0
3683,1,BB,shpivg,1,Test,1882,0,A1VI0LLY8JO8XO,36,0,i,0
3684,1,worst,lbifth,1,Catch,5606,0,A1VI0LLY8JO8XO,37,0,,0
4054,1,BB,vremg,1,Test,19030,0,A1XWT5Q5HGYR12,2,2,e,0
4055,1,BB,zgooshp,1,Test,1968,0,A1XWT5Q5HGYR12,3,2,oo,0
4056,0,GG,skaff,0,Test,1388,1,A1XWT5Q5HGYR12,4,2,a,0
4057,0,GG,spog,0,Test,1016,1,A1XWT5Q5HGYR12,5,2,o,0
4058,0,GG,flad,0,Test,886,1,A1XWT5Q5HGYR12,6,2,a,0
4059,1,best,dellous,1,Catch,1198,1,A1XWT5Q5HGYR12,7,2,,1
4060,0,BG,thnuff,1,Test,802,1,A1XWT5Q5HGYR12,8,2,u,1
4061,1,best,spellion,1,Catch,834,1,A1XWT5Q5HGYR12,9,2,,0
4062,1,BB,shkuzv,1,Test,791,0,A1XWT5Q5HGYR12,10,2,u,0
4063,1,GB,stroothf,0,Test,897,0,A1XWT5Q5HGYR12,11,2,oo,0
4064,0,BG,fmeck,1,Test,1125,1,A1XWT5Q5HGYR12,12,2,e,1
4065,1,GB,brivg,0,Test,1955,0,A1XWT5Q5HGYR12,13,2,i,1
4066,1,worst,psatrl,1,Catch,1252,0,A1XWT5Q5HGYR12,14,2,,1
4067,1,best,claffer,1,Catch,1280,1,A1XWT5Q5HGYR12,15,2,,1
4068,1,GB,skrebg,0,Test,880,0,A1XWT5Q5HGYR12,16,2,e,1
4069,1,worst,krlisg,1,Catch,866,0,A1XWT5Q5HGYR12,17,2,,1
4070,1,worst,tmoz,1,Catch,710,1,A1XWT5Q5HGYR12,18,2,,0
4071,0,BG,vlat,1,Test,778,1,A1XWT5Q5HGYR12,19,2,a,0
4072,0,GG,bloss,0,Test,947,0,A1XWT5Q5HGYR12,20,2,o,0
4073,0,GG,shrin,0,Test,1497,1,A1XWT5Q5HGYR12,21,2,i,1
4074,1,best,bressic,1,Catch,2747,1,A1XWT5Q5HGYR12,22,2,,0
4075,0,BG,shtell,1,Test,1770,0,A1XWT5Q5HGYR12,23,2,e,1
4076,1,worst,lbifth,1,Catch,1031,0,A1XWT5Q5HGYR12,24,2,,1
4077,1,best,frotion,1,Catch,998,1,A1XWT5Q5HGYR12,25,2,,1
4078,1,BB,dlefp,1,Test,820,1,A1XWT5Q5HGYR12,26,2,e,0
4079,1,GB,snopk,0,Test,751,1,A1XWT5Q5HGYR12,27,2,o,0
4080,1,BB,fnoozg,1,Test,1083,0,A1XWT5Q5HGYR12,28,2,oo,0
4081,1,worst,wlramr,1,Catch,893,0,A1XWT5Q5HGYR12,29,2,,0
4082,1,worst,zgdivl,1,Catch,1424,0,A1XWT5Q5HGYR12,30,2,,1
4083,1,GB,stoosf,0,Test,1130,0,A1XWT5Q5HGYR12,31,2,oo,1
4084,0,BG,tlag,1,Test,1048,0,A1XWT5Q5HGYR12,32,2,a,0
4085,1,best,merly,1,Catch,1987,1,A1XWT5Q5HGYR12,33,2,,1
4086,0,GG,frim,0,Test,1309,1,A1XWT5Q5HGYR12,34,2,i,0
4087,1,BB,thmog,1,Test,947,0,A1XWT5Q5HGYR12,35,2,o,0
4088,1,GB,glishf,0,Test,1039,0,A1XWT5Q5HGYR12,36,2,i,1
4089,0,BG,zduss,1,Test,1483,0,A1XWT5Q5HGYR12,37,2,u,0
4143,1,GB,splog,0,Test,10534,0,A1Z9Q0X7194BRQ,2,0,o,0
4144,1,best,spellion,1,Catch,4194,1,A1Z9Q0X7194BRQ,3,0,,0
4145,1,worst,tmoz,1,Catch,1053,0,A1Z9Q0X7194BRQ,4,0,,0
4146,1,BB,srishf,1,Test,901,0,A1Z9Q0X7194BRQ,5,0,i,0
4147,1,GB,gruzv,0,Test,1133,1,A1Z9Q0X7194BRQ,6,0,u,1
4148,0,BG,znin,1,Test,917,1,A1Z9Q0X7194BRQ,7,0,i,1
4149,1,BB,zmopk,1,Test,783,1,A1Z9Q0X7194BRQ,8,0,o,1
4150,1,worst,krlisg,1,Catch,1590,0,A1Z9Q0X7194BRQ,9,0,,0
4151,0,BG,zboss,1,Test,4286,0,A1Z9Q0X7194BRQ,10,0,o,1
4152,0,BG,shnog,1,Test,1421,0,A1Z9Q0X7194BRQ,11,0,o,1
4153,1,worst,lbifth,1,Catch,1414,0,A1Z9Q0X7194BRQ,12,0,,0
4154,1,BB,thloosf,1,Test,1550,0,A1Z9Q0X7194BRQ,13,0,oo,1
4155,1,GB,trooshp,0,Test,1189,0,A1Z9Q0X7194BRQ,14,0,oo,0
4156,1,best,merly,1,Catch,1589,1,A1Z9Q0X7194BRQ,15,0,,0
4157,1,GB,klefp,0,Test,1429,0,A1Z9Q0X7194BRQ,16,0,e,1
4158,1,best,dellous,1,Catch,1758,1,A1Z9Q0X7194BRQ,17,0,,1
4159,0,GG,smeck,0,Test,1430,1,A1Z9Q0X7194BRQ,18,0,e,0
4160,1,best,claffer,1,Catch,1654,1,A1Z9Q0X7194BRQ,19,0,,1
4161,0,GG,plag,0,Test,1285,1,A1Z9Q0X7194BRQ,20,0,a,0
4162,1,worst,zgdivl,1,Catch,1350,0,A1Z9Q0X7194BRQ,21,0,,0
4163,1,best,frotion,1,Catch,1886,1,A1Z9Q0X7194BRQ,22,0,,1
4164,0,BG,lrim,1,Test,1389,0,A1Z9Q0X7194BRQ,23,0,i,0
4165,0,BG,shlaff,1,Test,1302,0,A1Z9Q0X7194BRQ,24,0,a,1
4166,1,GB,throozg,0,Test,1158,0,A1Z9Q0X7194BRQ,25,0,oo,0
4167,1,BB,hroothf,1,Test,1150,0,A1Z9Q0X7194BRQ,26,0,oo,1
4168,0,GG,pruss,0,Test,1357,1,A1Z9Q0X7194BRQ,27,0,u,1
4169,1,best,bressic,1,Catch,1509,1,A1Z9Q0X7194BRQ,28,0,,0
4170,1,worst,wlramr,1,Catch,1286,0,A1Z9Q0X7194BRQ,29,0,,1
4171,0,GG,krat,0,Test,1503,1,A1Z9Q0X7194BRQ,30,0,a,0
4172,1,BB,vmebg,1,Test,1206,0,A1Z9Q0X7194BRQ,31,0,e,1
4173,1,worst,psatrl,1,Catch,1261,0,A1Z9Q0X7194BRQ,32,0,,0
4174,1,GB,slemg,0,Test,1398,0,A1Z9Q0X7194BRQ,33,0,e,1
4175,0,BG,vnad,1,Test,1254,0,A1Z9Q0X7194BRQ,34,0,a,0
4176,1,BB,shpivg,1,Test,1086,0,A1Z9Q0X7194BRQ,35,0,i,0
4177,0,GG,drell,0,Test,1765,1,A1Z9Q0X7194BRQ,36,0,e,1
4178,0,GG,swuff,0,Test,1886,0,A1Z9Q0X7194BRQ,37,0,u,0
4232,1,best,claffer,1,Catch,7458,1,A20CYIUITWLCO,2,2,,1
4233,1,worst,tmoz,1,Catch,3865,0,A20CYIUITWLCO,3,2,,1
4234,1,worst,lbifth,1,Catch,3210,0,A20CYIUITWLCO,4,2,,0
4235,1,GB,stroothf,0,Test,4594,0,A20CYIUITWLCO,5,2,oo,0
4236,0,GG,flad,0,Test,1656,1,A20CYIUITWLCO,6,2,a,0
4237,1,BB,fnoozg,1,Test,2731,0,A20CYIUITWLCO,7,2,oo,1
4238,0,GG,spog,0,Test,2249,0,A20CYIUITWLCO,8,2,o,1
4239,0,BG,fmeck,1,Test,1993,1,A20CYIUITWLCO,9,2,e,0
4240,1,BB,vremg,1,Test,1624,0,A20CYIUITWLCO,10,2,e,0
4241,1,best,dellous,1,Catch,2431,1,A20CYIUITWLCO,11,2,,0
4242,1,best,bressic,1,Catch,1800,1,A20CYIUITWLCO,12,2,,1
4243,1,GB,brivg,0,Test,1291,0,A20CYIUITWLCO,13,2,i,1
4244,0,GG,shrin,0,Test,2416,1,A20CYIUITWLCO,14,2,i,0
4245,1,GB,skrebg,0,Test,1596,0,A20CYIUITWLCO,15,2,e,1
4246,1,BB,thmog,1,Test,1770,0,A20CYIUITWLCO,16,2,o,1
4247,0,GG,bloss,0,Test,1455,1,A20CYIUITWLCO,17,2,o,0
4248,0,GG,skaff,0,Test,1814,1,A20CYIUITWLCO,18,2,a,1
4249,0,BG,thnuff,1,Test,2405,1,A20CYIUITWLCO,19,2,u,1
4250,0,BG,vlat,1,Test,1728,1,A20CYIUITWLCO,20,2,a,1
4251,0,GG,frim,0,Test,1918,1,A20CYIUITWLCO,21,2,i,0
4252,1,GB,glishf,0,Test,2366,0,A20CYIUITWLCO,22,2,i,0
4253,1,best,merly,1,Catch,1525,1,A20CYIUITWLCO,23,2,,0
4254,1,best,spellion,1,Catch,1741,1,A20CYIUITWLCO,24,2,,1
4255,0,BG,zduss,1,Test,1289,0,A20CYIUITWLCO,25,2,u,0
4256,1,worst,psatrl,1,Catch,1343,0,A20CYIUITWLCO,26,2,,0
4257,0,BG,shtell,1,Test,1370,0,A20CYIUITWLCO,27,2,e,0
4258,1,worst,zgdivl,1,Catch,1189,0,A20CYIUITWLCO,28,2,,1
4259,1,best,frotion,1,Catch,1880,1,A20CYIUITWLCO,29,2,,0
4260,1,BB,dlefp,1,Test,1168,0,A20CYIUITWLCO,30,2,e,0
4261,1,GB,stoosf,0,Test,1245,0,A20CYIUITWLCO,31,2,oo,1
4262,1,worst,wlramr,1,Catch,1671,0,A20CYIUITWLCO,32,2,,1
4263,1,worst,krlisg,1,Catch,1123,0,A20CYIUITWLCO,33,2,,1
4264,1,BB,zgooshp,1,Test,1162,0,A20CYIUITWLCO,34,2,oo,0
4265,1,GB,snopk,0,Test,1677,1,A20CYIUITWLCO,35,2,o,0
4266,1,BB,shkuzv,1,Test,1486,0,A20CYIUITWLCO,36,2,u,1
4267,0,BG,tlag,1,Test,897,0,A20CYIUITWLCO,37,2,a,1
4276,1,best,claffer,1,Catch,5204,1,A20KJRW7NPB05U,2,0,,0
4277,1,GB,klefp,0,Test,2914,0,A20KJRW7NPB05U,3,0,e,0
4278,1,worst,wlramr,1,Catch,1473,0,A20KJRW7NPB05U,4,0,,0
4279,1,worst,zgdivl,1,Catch,2044,1,A20KJRW7NPB05U,5,0,,1
4280,1,best,frotion,1,Catch,2289,1,A20KJRW7NPB05U,6,0,,0
4281,1,GB,trooshp,0,Test,2743,0,A20KJRW7NPB05U,7,0,oo,1
4282,1,GB,splog,0,Test,1807,0,A20KJRW7NPB05U,8,0,o,1
4283,0,BG,shlaff,1,Test,1539,1,A20KJRW7NPB05U,9,0,a,1
4284,1,GB,throozg,0,Test,2598,0,A20KJRW7NPB05U,10,0,oo,0
4285,0,GG,plag,0,Test,2052,1,A20KJRW7NPB05U,11,0,a,1
4286,1,worst,tmoz,1,Catch,1857,0,A20KJRW7NPB05U,12,0,,0
4287,1,BB,vmebg,1,Test,1561,0,A20KJRW7NPB05U,13,0,e,0
4288,0,GG,smeck,0,Test,1652,1,A20KJRW7NPB05U,14,0,e,1
4289,0,BG,lrim,1,Test,1552,1,A20KJRW7NPB05U,15,0,i,0
4290,0,BG,shnog,1,Test,1889,1,A20KJRW7NPB05U,16,0,o,1
4291,1,worst,lbifth,1,Catch,1484,0,A20KJRW7NPB05U,17,0,,0
4292,1,BB,hroothf,1,Test,1383,0,A20KJRW7NPB05U,18,0,oo,0
4293,1,GB,gruzv,0,Test,4182,0,A20KJRW7NPB05U,19,0,u,1
4294,1,worst,krlisg,1,Catch,2508,0,A20KJRW7NPB05U,20,0,,1
4295,0,GG,swuff,0,Test,1742,1,A20KJRW7NPB05U,21,0,u,0
4296,1,GB,slemg,0,Test,2036,0,A20KJRW7NPB05U,22,0,e,1
4297,1,best,merly,1,Catch,1625,1,A20KJRW7NPB05U,23,0,,0
4298,0,BG,zboss,1,Test,2084,1,A20KJRW7NPB05U,24,0,o,1
4299,1,best,bressic,1,Catch,1503,1,A20KJRW7NPB05U,25,0,,1
4300,1,best,dellous,1,Catch,1979,1,A20KJRW7NPB05U,26,0,,1
4301,0,BG,znin,1,Test,1794,0,A20KJRW7NPB05U,27,0,i,0
4302,1,BB,srishf,1,Test,2311,0,A20KJRW7NPB05U,28,0,i,0
4303,1,BB,thloosf,1,Test,1490,0,A20KJRW7NPB05U,29,0,oo,0
4304,1,BB,zmopk,1,Test,2276,0,A20KJRW7NPB05U,30,0,o,0
4305,0,GG,drell,0,Test,2851,1,A20KJRW7NPB05U,31,0,e,1
4306,1,worst,psatrl,1,Catch,2182,0,A20KJRW7NPB05U,32,0,,1
4307,1,BB,shpivg,1,Test,2139,0,A20KJRW7NPB05U,33,0,i,0
4308,0,GG,krat,0,Test,1383,1,A20KJRW7NPB05U,34,0,a,0
4309,1,best,spellion,1,Catch,1538,1,A20KJRW7NPB05U,35,0,,0
4310,0,GG,pruss,0,Test,1570,1,A20KJRW7NPB05U,36,0,u,1
4311,0,BG,vnad,1,Test,1330,0,A20KJRW7NPB05U,37,0,a,1
4357,0,GG,snock,0,Test,3930,0,A21JLRJ8NVYZ3E,2,1,o,0
4358,1,GB,plav,0,Test,1410,0,A21JLRJ8NVYZ3E,3,1,a,0
4359,1,GB,prumth,0,Test,1507,0,A21JLRJ8NVYZ3E,4,1,u,0
4360,0,GG,skrep,0,Test,3535,1,A21JLRJ8NVYZ3E,5,1,e,1
4361,1,best,dellous,1,Catch,1246,1,A21JLRJ8NVYZ3E,6,1,,1
4362,0,GG,stoo,0,Test,1645,0,A21JLRJ8NVYZ3E,7,1,oo,1
4363,1,BB,zbofk,1,Test,1214,0,A21JLRJ8NVYZ3E,8,1,o,1
4364,1,GB,drefsh,0,Test,3679,0,A21JLRJ8NVYZ3E,9,1,e,0
4365,1,worst,wlramr,1,Catch,1811,0,A21JLRJ8NVYZ3E,10,1,,1
4366,1,BB,shlashk,1,Test,1658,0,A21JLRJ8NVYZ3E,11,1,a,1
4367,1,best,frotion,1,Catch,1537,1,A21JLRJ8NVYZ3E,12,1,,1
4368,1,worst,psatrl,1,Catch,2442,0,A21JLRJ8NVYZ3E,13,1,,1
4369,1,worst,krlisg,1,Catch,1771,0,A21JLRJ8NVYZ3E,14,1,,0
4370,1,GB,smen,0,Test,1861,0,A21JLRJ8NVYZ3E,15,1,e,0
4371,1,BB,znitp,1,Test,2301,0,A21JLRJ8NVYZ3E,16,1,i,1
4372,1,BB,lrid,1,Test,2534,0,A21JLRJ8NVYZ3E,17,1,i,0
4373,0,BG,dlep,1,Test,1905,1,A21JLRJ8NVYZ3E,18,1,e,1
4374,0,GG,glid,0,Test,1169,1,A21JLRJ8NVYZ3E,19,1,i,1
4375,1,worst,tmoz,1,Catch,2310,0,A21JLRJ8NVYZ3E,20,1,,0
4376,0,BG,zgoom,1,Test,1853,0,A21JLRJ8NVYZ3E,21,1,oo,0
4377,0,BG,fnooz,1,Test,1407,1,A21JLRJ8NVYZ3E,22,1,oo,0
4378,1,worst,lbifth,1,Catch,3002,0,A21JLRJ8NVYZ3E,23,1,,1
4379,1,best,claffer,1,Catch,1949,1,A21JLRJ8NVYZ3E,24,1,,1
4380,1,worst,zgdivl,1,Catch,1534,0,A21JLRJ8NVYZ3E,25,1,,0
4381,1,BB,shnoz,1,Test,2103,0,A21JLRJ8NVYZ3E,26,1,o,0
4382,0,BG,shkun,1,Test,2163,0,A21JLRJ8NVYZ3E,27,1,u,1
4383,1,GB,krathp,0,Test,2487,1,A21JLRJ8NVYZ3E,28,1,a,0
4384,0,GG,brizz,0,Test,1099,1,A21JLRJ8NVYZ3E,29,1,i,0
4385,0,BG,thmot,1,Test,1826,1,A21JLRJ8NVYZ3E,30,1,o,1
4386,1,best,merly,1,Catch,2176,1,A21JLRJ8NVYZ3E,31,1,,0
4387,0,BG,vre,1,Test,1700,1,A21JLRJ8NVYZ3E,32,1,e,1
4388,1,best,spellion,1,Catch,1752,1,A21JLRJ8NVYZ3E,33,1,,0
4389,1,BB,vnathk,1,Test,2084,0,A21JLRJ8NVYZ3E,34,1,a,1
4390,1,best,bressic,1,Catch,1611,1,A21JLRJ8NVYZ3E,35,1,,1
4391,0,GG,strool,0,Test,1565,1,A21JLRJ8NVYZ3E,36,1,oo,0
4392,1,GB,swukp,0,Test,1865,0,A21JLRJ8NVYZ3E,37,1,u,0
4678,0,GG,strool,0,Test,16657,1,A229PBL3A53GIY,2,1,oo,1
4679,1,BB,shnoz,1,Test,2976,1,A229PBL3A53GIY,3,1,o,0
4680,1,worst,zgdivl,1,Catch,2135,0,A229PBL3A53GIY,4,1,,0
4681,1,worst,tmoz,1,Catch,1303,0,A229PBL3A53GIY,5,1,,0
4682,0,GG,snock,0,Test,1912,1,A229PBL3A53GIY,6,1,o,0
4683,0,BG,shkun,1,Test,1302,0,A229PBL3A53GIY,7,1,u,0
4684,1,GB,swukp,0,Test,1416,0,A229PBL3A53GIY,8,1,u,0
4685,0,BG,vre,1,Test,1045,0,A229PBL3A53GIY,9,1,e,0
4686,0,BG,dlep,1,Test,1000,1,A229PBL3A53GIY,10,1,e,1
4687,1,GB,plav,0,Test,1280,0,A229PBL3A53GIY,11,1,a,1
4688,1,BB,shlashk,1,Test,1393,0,A229PBL3A53GIY,12,1,a,0
4689,0,BG,thmot,1,Test,1822,0,A229PBL3A53GIY,13,1,o,1
4690,1,worst,lbifth,1,Catch,1337,0,A229PBL3A53GIY,14,1,,0
4691,0,GG,glid,0,Test,2327,1,A229PBL3A53GIY,15,1,i,1
4692,1,best,bressic,1,Catch,1832,1,A229PBL3A53GIY,16,1,,1
4693,1,best,dellous,1,Catch,1382,1,A229PBL3A53GIY,17,1,,0
4694,1,GB,krathp,0,Test,1360,0,A229PBL3A53GIY,18,1,a,0
4695,1,BB,vnathk,1,Test,1338,0,A229PBL3A53GIY,19,1,a,0
4696,1,worst,wlramr,1,Catch,1552,0,A229PBL3A53GIY,20,1,,1
4697,1,best,merly,1,Catch,1576,1,A229PBL3A53GIY,21,1,,0
4698,1,best,claffer,1,Catch,1357,1,A229PBL3A53GIY,22,1,,1
4699,1,worst,krlisg,1,Catch,1360,0,A229PBL3A53GIY,23,1,,0
4700,1,GB,drefsh,0,Test,1371,0,A229PBL3A53GIY,24,1,e,0
4701,1,GB,smen,0,Test,1102,0,A229PBL3A53GIY,25,1,e,0
4702,1,BB,znitp,1,Test,1459,0,A229PBL3A53GIY,26,1,i,1
4703,0,GG,skrep,0,Test,1382,0,A229PBL3A53GIY,27,1,e,1
4704,1,BB,zbofk,1,Test,1000,0,A229PBL3A53GIY,28,1,o,1
4705,0,BG,zgoom,1,Test,1112,0,A229PBL3A53GIY,29,1,oo,1
4706,1,GB,prumth,0,Test,909,0,A229PBL3A53GIY,30,1,u,1
4707,0,BG,fnooz,1,Test,887,0,A229PBL3A53GIY,31,1,oo,1
4708,1,best,frotion,1,Catch,1158,1,A229PBL3A53GIY,32,1,,1
4709,1,best,spellion,1,Catch,1012,1,A229PBL3A53GIY,33,1,,1
4710,1,BB,lrid,1,Test,943,0,A229PBL3A53GIY,34,1,i,1
4711,0,GG,stoo,0,Test,2057,1,A229PBL3A53GIY,35,1,oo,0
4712,0,GG,brizz,0,Test,1450,1,A229PBL3A53GIY,36,1,i,0
4713,1,worst,psatrl,1,Catch,1157,0,A229PBL3A53GIY,37,1,,1
4722,1,best,dellous,1,Catch,7700,0,A22RYT57XW88C1,2,3,,1
4723,0,BG,thloo,1,Test,6119,0,A22RYT57XW88C1,3,3,oo,0
4724,1,worst,krlisg,1,Catch,5436,0,A22RYT57XW88C1,4,3,,1
4725,0,BG,zmock,1,Test,4207,1,A22RYT57XW88C1,5,3,o,1
4726,1,GB,flathk,0,Test,6606,0,A22RYT57XW88C1,6,3,a,1
4727,1,GB,blofk,0,Test,2861,0,A22RYT57XW88C1,7,3,o,0
4728,1,worst,wlramr,1,Catch,2109,0,A22RYT57XW88C1,8,3,,0
4729,0,GG,klep,0,Test,2271,1,A22RYT57XW88C1,9,3,e,1
4730,1,best,frotion,1,Catch,2781,1,A22RYT57XW88C1,10,3,,1
4731,1,GB,shritp,0,Test,2380,0,A22RYT57XW88C1,11,3,i,0
4732,1,best,spellion,1,Catch,1951,1,A22RYT57XW88C1,12,3,,0
4733,1,BB,vlathp,1,Test,2477,0,A22RYT57XW88C1,13,3,a,0
4734,1,BB,zdumth,1,Test,1661,0,A22RYT57XW88C1,14,3,u,1
4735,1,BB,thnukp,1,Test,1965,0,A22RYT57XW88C1,15,3,u,0
4736,1,worst,tmoz,1,Catch,1567,0,A22RYT57XW88C1,16,3,,1
4737,1,BB,tlav,1,Test,2046,0,A22RYT57XW88C1,17,3,a,1
4738,1,BB,shtefsh,1,Test,1741,0,A22RYT57XW88C1,18,3,e,1
4739,1,GB,skashk,0,Test,2607,1,A22RYT57XW88C1,19,3,a,0
4740,0,GG,splot,0,Test,1448,1,A22RYT57XW88C1,20,3,o,1
4741,1,best,bressic,1,Catch,1515,1,A22RYT57XW88C1,21,3,,0
4742,0,GG,sle,0,Test,1437,1,A22RYT57XW88C1,22,3,e,1
4743,1,BB,fmen,1,Test,1277,0,A22RYT57XW88C1,23,3,e,1
4744,1,worst,zgdivl,1,Catch,1438,0,A22RYT57XW88C1,24,3,,0
4745,1,worst,psatrl,1,Catch,1790,0,A22RYT57XW88C1,25,3,,1
4746,1,best,claffer,1,Catch,1613,1,A22RYT57XW88C1,26,3,,0
4747,1,GB,spoz,0,Test,1677,0,A22RYT57XW88C1,27,3,o,0
4748,0,BG,hrool,1,Test,1533,0,A22RYT57XW88C1,28,3,oo,1
4749,0,BG,shpizz,1,Test,1581,0,A22RYT57XW88C1,29,3,i,0
4750,0,GG,grun,0,Test,1343,1,A22RYT57XW88C1,30,3,u,1
4751,0,GG,throoz,0,Test,4364,1,A22RYT57XW88C1,31,3,oo,1
4752,0,GG,troom,0,Test,1309,1,A22RYT57XW88C1,32,3,oo,0
4753,1,worst,lbifth,1,Catch,1390,0,A22RYT57XW88C1,33,3,,0
4754,0,BG,vmep,1,Test,1647,0,A22RYT57XW88C1,34,3,e,1
4755,1,best,merly,1,Catch,1326,1,A22RYT57XW88C1,35,3,,0
4756,0,BG,srid,1,Test,1724,0,A22RYT57XW88C1,36,3,i,0
4757,1,GB,frid,0,Test,1853,0,A22RYT57XW88C1,37,3,i,1
4766,1,GB,trooshp,0,Test,11687,0,A231YJ92L0FV6T,2,0,oo,1
4767,1,best,claffer,1,Catch,12408,0,A231YJ92L0FV6T,3,0,,1
4768,1,best,dellous,1,Catch,16548,0,A231YJ92L0FV6T,4,0,,1
4769,0,BG,lrim,1,Test,11205,0,A231YJ92L0FV6T,5,0,i,0
4770,1,BB,thloosf,1,Test,12581,0,A231YJ92L0FV6T,6,0,oo,0
4771,0,BG,zboss,1,Test,16245,0,A231YJ92L0FV6T,7,0,o,1
4772,0,GG,krat,0,Test,14165,1,A231YJ92L0FV6T,8,0,a,0
4773,1,BB,zmopk,1,Test,9429,0,A231YJ92L0FV6T,9,0,o,0
4774,0,BG,znin,1,Test,7853,0,A231YJ92L0FV6T,10,0,i,0
4775,1,worst,lbifth,1,Catch,10861,0,A231YJ92L0FV6T,11,0,,0
4776,1,worst,psatrl,1,Catch,11165,0,A231YJ92L0FV6T,12,0,,1
4777,1,GB,gruzv,0,Test,7087,0,A231YJ92L0FV6T,13,0,u,1
4778,1,worst,wlramr,1,Catch,21432,0,A231YJ92L0FV6T,14,0,,1
4779,0,GG,smeck,0,Test,7630,0,A231YJ92L0FV6T,15,0,e,0
4780,0,GG,drell,0,Test,9147,0,A231YJ92L0FV6T,16,0,e,0
4781,1,best,spellion,1,Catch,7548,0,A231YJ92L0FV6T,17,0,,0
4782,1,BB,hroothf,1,Test,6213,0,A231YJ92L0FV6T,18,0,oo,1
4783,0,GG,pruss,0,Test,12621,0,A231YJ92L0FV6T,19,0,u,0
4784,0,GG,plag,0,Test,6124,1,A231YJ92L0FV6T,20,0,a,0
4785,1,GB,slemg,0,Test,8741,0,A231YJ92L0FV6T,21,0,e,0
4786,0,GG,swuff,0,Test,6045,0,A231YJ92L0FV6T,22,0,u,0
4787,0,BG,vnad,1,Test,8941,0,A231YJ92L0FV6T,23,0,a,0
4788,1,worst,zgdivl,1,Catch,5821,0,A231YJ92L0FV6T,24,0,,1
4789,1,worst,tmoz,1,Catch,7260,0,A231YJ92L0FV6T,25,0,,0
4790,1,GB,splog,0,Test,7957,0,A231YJ92L0FV6T,26,0,o,1
4791,1,best,bressic,1,Catch,6605,0,A231YJ92L0FV6T,27,0,,0
4792,1,GB,throozg,0,Test,4845,0,A231YJ92L0FV6T,28,0,oo,1
4793,1,BB,vmebg,1,Test,7197,0,A231YJ92L0FV6T,29,0,e,0
4794,1,GB,klefp,0,Test,5869,0,A231YJ92L0FV6T,30,0,e,1
4795,1,worst,krlisg,1,Catch,5645,0,A231YJ92L0FV6T,31,0,,0
4796,1,BB,srishf,1,Test,4933,0,A231YJ92L0FV6T,32,0,i,1
4797,0,BG,shlaff,1,Test,9269,0,A231YJ92L0FV6T,33,0,a,1
4798,1,best,frotion,1,Catch,7053,0,A231YJ92L0FV6T,34,0,,0
4799,1,best,merly,1,Catch,7406,1,A231YJ92L0FV6T,35,0,,1
4800,1,BB,shpivg,1,Test,4812,0,A231YJ92L0FV6T,36,0,i,0
4801,0,BG,shnog,1,Test,5413,0,A231YJ92L0FV6T,37,0,o,1
4847,0,BG,hrool,1,Test,11243,1,A23NHL1Q5LUYB4,2,3,oo,1
4848,1,BB,shtefsh,1,Test,1978,1,A23NHL1Q5LUYB4,3,3,e,1
4849,0,GG,grun,0,Test,3266,1,A23NHL1Q5LUYB4,4,3,u,0
4850,1,worst,tmoz,1,Catch,1413,0,A23NHL1Q5LUYB4,5,3,,0
4851,1,GB,skashk,0,Test,1813,0,A23NHL1Q5LUYB4,6,3,a,0
4852,1,best,bressic,1,Catch,2667,1,A23NHL1Q5LUYB4,7,3,,1
4853,1,best,frotion,1,Catch,1510,1,A23NHL1Q5LUYB4,8,3,,0
4854,1,GB,blofk,0,Test,1606,0,A23NHL1Q5LUYB4,9,3,o,0
4855,1,BB,thnukp,1,Test,1821,0,A23NHL1Q5LUYB4,10,3,u,1
4856,1,worst,krlisg,1,Catch,1732,0,A23NHL1Q5LUYB4,11,3,,1
4857,1,worst,wlramr,1,Catch,1846,0,A23NHL1Q5LUYB4,12,3,,0
4858,0,BG,shpizz,1,Test,1413,0,A23NHL1Q5LUYB4,13,3,i,1
4859,0,GG,troom,0,Test,1341,1,A23NHL1Q5LUYB4,14,3,oo,1
4860,1,GB,shritp,0,Test,1366,0,A23NHL1Q5LUYB4,15,3,i,1
4861,0,BG,vmep,1,Test,1262,0,A23NHL1Q5LUYB4,16,3,e,1
4862,1,worst,zgdivl,1,Catch,1270,0,A23NHL1Q5LUYB4,17,3,,1
4863,1,best,merly,1,Catch,1438,1,A23NHL1Q5LUYB4,18,3,,1
4864,1,BB,tlav,1,Test,1476,0,A23NHL1Q5LUYB4,19,3,a,1
4865,1,BB,vlathp,1,Test,1606,0,A23NHL1Q5LUYB4,20,3,a,0
4866,1,BB,fmen,1,Test,1421,0,A23NHL1Q5LUYB4,21,3,e,1
4867,1,GB,flathk,0,Test,1453,0,A23NHL1Q5LUYB4,22,3,a,0
4868,0,BG,zmock,1,Test,1611,1,A23NHL1Q5LUYB4,23,3,o,0
4869,0,GG,klep,0,Test,1310,1,A23NHL1Q5LUYB4,24,3,e,0
4870,0,GG,throoz,0,Test,2221,1,A23NHL1Q5LUYB4,25,3,oo,1
4871,0,BG,srid,1,Test,1797,0,A23NHL1Q5LUYB4,26,3,i,1
4872,1,BB,zdumth,1,Test,1142,0,A23NHL1Q5LUYB4,27,3,u,1
4873,1,worst,lbifth,1,Catch,1932,0,A23NHL1Q5LUYB4,28,3,,0
4874,0,GG,sle,0,Test,1334,1,A23NHL1Q5LUYB4,29,3,e,1
4875,1,GB,spoz,0,Test,1453,0,A23NHL1Q5LUYB4,30,3,o,0
4876,0,BG,thloo,1,Test,1781,0,A23NHL1Q5LUYB4,31,3,oo,1
4877,1,worst,psatrl,1,Catch,2052,0,A23NHL1Q5LUYB4,32,3,,1
4878,1,best,claffer,1,Catch,1476,1,A23NHL1Q5LUYB4,33,3,,0
4879,1,best,spellion,1,Catch,1549,1,A23NHL1Q5LUYB4,34,3,,1
4880,0,GG,splot,0,Test,1230,1,A23NHL1Q5LUYB4,35,3,o,0
4881,1,best,dellous,1,Catch,1261,1,A23NHL1Q5LUYB4,36,3,,0
4882,1,GB,frid,0,Test,1381,0,A23NHL1Q5LUYB4,37,3,i,1
4891,0,GG,snock,0,Test,13714,0,A245ULD0JMXA1A,2,1,o,0
4892,1,worst,krlisg,1,Catch,1575,0,A245ULD0JMXA1A,3,1,,0
4893,1,GB,prumth,0,Test,1274,0,A245ULD0JMXA1A,4,1,u,0
4894,1,best,dellous,1,Catch,1188,1,A245ULD0JMXA1A,5,1,,1
4895,1,GB,plav,0,Test,1921,1,A245ULD0JMXA1A,6,1,a,1
4896,1,GB,drefsh,0,Test,2119,1,A245ULD0JMXA1A,7,1,e,0
4897,1,worst,zgdivl,1,Catch,1050,1,A245ULD0JMXA1A,8,1,,1
4898,1,best,frotion,1,Catch,1168,0,A245ULD0JMXA1A,9,1,,1
4899,0,GG,glid,0,Test,911,0,A245ULD0JMXA1A,10,1,i,0
4900,1,best,bressic,1,Catch,1997,0,A245ULD0JMXA1A,11,1,,1
4901,0,BG,vre,1,Test,3533,0,A245ULD0JMXA1A,12,1,e,0
4902,0,GG,brizz,0,Test,3485,1,A245ULD0JMXA1A,13,1,i,1
4903,1,best,claffer,1,Catch,1508,1,A245ULD0JMXA1A,14,1,,0
4904,1,worst,psatrl,1,Catch,1240,0,A245ULD0JMXA1A,15,1,,0
4905,1,BB,zbofk,1,Test,1751,0,A245ULD0JMXA1A,16,1,o,0
4906,0,GG,skrep,0,Test,1844,0,A245ULD0JMXA1A,17,1,e,1
4907,1,GB,swukp,0,Test,1269,1,A245ULD0JMXA1A,18,1,u,0
4908,1,GB,smen,0,Test,1415,1,A245ULD0JMXA1A,19,1,e,0
4909,1,BB,znitp,1,Test,1845,1,A245ULD0JMXA1A,20,1,i,0
4910,1,worst,lbifth,1,Catch,1281,0,A245ULD0JMXA1A,21,1,,1
4911,0,BG,shkun,1,Test,1649,0,A245ULD0JMXA1A,22,1,u,1
4912,0,BG,dlep,1,Test,91613,1,A245ULD0JMXA1A,23,1,e,0
4913,1,BB,vnathk,1,Test,1756,1,A245ULD0JMXA1A,24,1,a,0
4914,1,worst,tmoz,1,Catch,2119,0,A245ULD0JMXA1A,25,1,,1
4915,0,BG,zgoom,1,Test,1109,0,A245ULD0JMXA1A,26,1,oo,0
4916,0,GG,stoo,0,Test,1635,1,A245ULD0JMXA1A,27,1,oo,0
4917,0,GG,strool,0,Test,1319,0,A245ULD0JMXA1A,28,1,oo,0
4918,1,GB,krathp,0,Test,1739,0,A245ULD0JMXA1A,29,1,a,1
4919,0,BG,fnooz,1,Test,1782,0,A245ULD0JMXA1A,30,1,oo,0
4920,0,BG,thmot,1,Test,1666,0,A245ULD0JMXA1A,31,1,o,1
4921,1,BB,shnoz,1,Test,1292,0,A245ULD0JMXA1A,32,1,o,1
4922,1,worst,wlramr,1,Catch,1316,0,A245ULD0JMXA1A,33,1,,1
4923,1,BB,lrid,1,Test,1101,0,A245ULD0JMXA1A,34,1,i,1
4924,1,best,merly,1,Catch,1113,0,A245ULD0JMXA1A,35,1,,1
4925,1,BB,shlashk,1,Test,1200,0,A245ULD0JMXA1A,36,1,a,0
4926,1,best,spellion,1,Catch,1453,0,A245ULD0JMXA1A,37,1,,0
4935,1,best,dellous,1,Catch,12127,1,A26RO8GGTQAXGG,2,0,,1
4936,0,GG,swuff,0,Test,13398,1,A26RO8GGTQAXGG,3,0,u,0
4937,1,worst,psatrl,1,Catch,6346,0,A26RO8GGTQAXGG,4,0,,1
4938,1,GB,gruzv,0,Test,2943,0,A26RO8GGTQAXGG,5,0,u,1
4939,0,BG,shlaff,1,Test,3408,0,A26RO8GGTQAXGG,6,0,a,0
4940,1,best,frotion,1,Catch,3449,1,A26RO8GGTQAXGG,7,0,,1
4941,1,worst,krlisg,1,Catch,3035,0,A26RO8GGTQAXGG,8,0,,1
4942,1,GB,splog,0,Test,7128,0,A26RO8GGTQAXGG,9,0,o,0
4943,1,best,bressic,1,Catch,5951,1,A26RO8GGTQAXGG,10,0,,0
4944,1,GB,klefp,0,Test,2157,0,A26RO8GGTQAXGG,11,0,e,1
4945,0,BG,lrim,1,Test,2155,1,A26RO8GGTQAXGG,12,0,i,0
4946,1,BB,vmebg,1,Test,1942,0,A26RO8GGTQAXGG,13,0,e,1
4947,1,BB,zmopk,1,Test,2091,0,A26RO8GGTQAXGG,14,0,o,1
4948,0,GG,plag,0,Test,3416,1,A26RO8GGTQAXGG,15,0,a,1
4949,0,BG,shnog,1,Test,1875,0,A26RO8GGTQAXGG,16,0,o,0
4950,1,best,merly,1,Catch,5006,1,A26RO8GGTQAXGG,17,0,,1
4951,0,BG,znin,1,Test,5316,0,A26RO8GGTQAXGG,18,0,i,0
4952,0,GG,drell,0,Test,3629,0,A26RO8GGTQAXGG,19,0,e,1
4953,0,GG,krat,0,Test,4693,1,A26RO8GGTQAXGG,20,0,a,0
4954,0,GG,pruss,0,Test,2177,1,A26RO8GGTQAXGG,21,0,u,0
4955,0,BG,zboss,1,Test,2369,1,A26RO8GGTQAXGG,22,0,o,1
4956,1,BB,hroothf,1,Test,2578,0,A26RO8GGTQAXGG,23,0,oo,0
4957,1,worst,zgdivl,1,Catch,2226,0,A26RO8GGTQAXGG,24,0,,0
4958,1,worst,lbifth,1,Catch,2571,0,A26RO8GGTQAXGG,25,0,,1
4959,0,GG,smeck,0,Test,1917,1,A26RO8GGTQAXGG,26,0,e,1
4960,1,GB,throozg,0,Test,3133,0,A26RO8GGTQAXGG,27,0,oo,0
4961,1,BB,srishf,1,Test,2604,0,A26RO8GGTQAXGG,28,0,i,1
4962,1,worst,tmoz,1,Catch,1814,0,A26RO8GGTQAXGG,29,0,,0
4963,1,GB,trooshp,0,Test,3142,0,A26RO8GGTQAXGG,30,0,oo,0
4964,0,BG,vnad,1,Test,2506,0,A26RO8GGTQAXGG,31,0,a,0
4965,1,GB,slemg,0,Test,2301,0,A26RO8GGTQAXGG,32,0,e,0
4966,1,best,claffer,1,Catch,2112,1,A26RO8GGTQAXGG,33,0,,0
4967,1,BB,thloosf,1,Test,2301,0,A26RO8GGTQAXGG,34,0,oo,0
4968,1,BB,shpivg,1,Test,2008,0,A26RO8GGTQAXGG,35,0,i,0
4969,1,worst,wlramr,1,Catch,3558,0,A26RO8GGTQAXGG,36,0,,1
4970,1,best,spellion,1,Catch,2578,1,A26RO8GGTQAXGG,37,0,,1
5171,0,GG,frim,0,Test,3831,1,A27Y8K3JEAFZIB,2,2,i,1
5172,1,GB,stoosf,0,Test,1556,0,A27Y8K3JEAFZIB,3,2,oo,1
5173,0,GG,bloss,0,Test,2765,1,A27Y8K3JEAFZIB,4,2,o,1
5174,1,worst,lbifth,1,Catch,1357,0,A27Y8K3JEAFZIB,5,2,,1
5175,1,best,frotion,1,Catch,1327,1,A27Y8K3JEAFZIB,6,2,,1
5176,1,best,claffer,1,Catch,1158,0,A27Y8K3JEAFZIB,7,2,,0
5177,1,best,bressic,1,Catch,2805,0,A27Y8K3JEAFZIB,8,2,,1
5178,1,BB,vremg,1,Test,1175,0,A27Y8K3JEAFZIB,9,2,e,1
5179,1,BB,dlefp,1,Test,1293,0,A27Y8K3JEAFZIB,10,2,e,1
5180,1,GB,snopk,0,Test,1990,0,A27Y8K3JEAFZIB,11,2,o,1
5181,1,BB,shkuzv,1,Test,974,0,A27Y8K3JEAFZIB,12,2,u,1
5182,0,BG,vlat,1,Test,1141,0,A27Y8K3JEAFZIB,13,2,a,1
5183,1,best,merly,1,Catch,1221,0,A27Y8K3JEAFZIB,14,2,,0
5184,1,BB,zgooshp,1,Test,1453,1,A27Y8K3JEAFZIB,15,2,oo,0
5185,0,BG,thnuff,1,Test,3527,1,A27Y8K3JEAFZIB,16,2,u,0
5186,1,BB,fnoozg,1,Test,5310,0,A27Y8K3JEAFZIB,17,2,oo,1
5187,0,BG,fmeck,1,Test,1574,0,A27Y8K3JEAFZIB,18,2,e,1
5188,1,best,dellous,1,Catch,1903,1,A27Y8K3JEAFZIB,19,2,,0
5189,1,GB,stroothf,0,Test,1885,0,A27Y8K3JEAFZIB,20,2,oo,1
5190,1,best,spellion,1,Catch,1437,1,A27Y8K3JEAFZIB,21,2,,1
5191,1,worst,krlisg,1,Catch,1309,0,A27Y8K3JEAFZIB,22,2,,1
5192,0,GG,flad,0,Test,2405,0,A27Y8K3JEAFZIB,23,2,a,1
5193,1,worst,psatrl,1,Catch,2165,0,A27Y8K3JEAFZIB,24,2,,0
5194,1,GB,glishf,0,Test,1784,0,A27Y8K3JEAFZIB,25,2,i,0
5195,0,GG,spog,0,Test,2197,1,A27Y8K3JEAFZIB,26,2,o,1
5196,1,worst,zgdivl,1,Catch,1207,0,A27Y8K3JEAFZIB,27,2,,1
5197,1,worst,wlramr,1,Catch,1181,0,A27Y8K3JEAFZIB,28,2,,1
5198,0,BG,shtell,1,Test,1141,0,A27Y8K3JEAFZIB,29,2,e,1
5199,0,BG,zduss,1,Test,2206,0,A27Y8K3JEAFZIB,30,2,u,0
5200,1,worst,tmoz,1,Catch,1054,0,A27Y8K3JEAFZIB,31,2,,0
5201,1,GB,skrebg,0,Test,1382,0,A27Y8K3JEAFZIB,32,2,e,1
5202,0,GG,skaff,0,Test,1501,1,A27Y8K3JEAFZIB,33,2,a,0
5203,0,GG,shrin,0,Test,1117,1,A27Y8K3JEAFZIB,34,2,i,0
5204,1,BB,thmog,1,Test,2181,0,A27Y8K3JEAFZIB,35,2,o,1
5205,1,GB,brivg,0,Test,1452,0,A27Y8K3JEAFZIB,36,2,i,0
5206,0,BG,tlag,1,Test,1582,0,A27Y8K3JEAFZIB,37,2,a,1
5215,0,BG,lrim,1,Test,5507,0,A28B8TGLQO1ZBD,2,0,i,0
5216,0,GG,pruss,0,Test,2199,1,A28B8TGLQO1ZBD,3,0,u,1
5217,0,GG,drell,0,Test,2541,0,A28B8TGLQO1ZBD,4,0,e,1
5218,1,GB,gruzv,0,Test,3170,0,A28B8TGLQO1ZBD,5,0,u,0
5219,1,worst,lbifth,1,Catch,3339,0,A28B8TGLQO1ZBD,6,0,,1
5220,0,BG,shlaff,1,Test,1943,1,A28B8TGLQO1ZBD,7,0,a,0
5221,1,worst,wlramr,1,Catch,4501,0,A28B8TGLQO1ZBD,8,0,,0
5222,0,GG,swuff,0,Test,2947,1,A28B8TGLQO1ZBD,9,0,u,1
5223,1,best,frotion,1,Catch,1950,1,A28B8TGLQO1ZBD,10,0,,0
5224,0,GG,plag,0,Test,3265,0,A28B8TGLQO1ZBD,11,0,a,0
5225,1,GB,throozg,0,Test,2109,0,A28B8TGLQO1ZBD,12,0,oo,1
5226,1,worst,zgdivl,1,Catch,2253,0,A28B8TGLQO1ZBD,13,0,,0
5227,0,BG,vnad,1,Test,1517,0,A28B8TGLQO1ZBD,14,0,a,0
5228,1,GB,trooshp,0,Test,3847,0,A28B8TGLQO1ZBD,15,0,oo,1
5229,1,worst,krlisg,1,Catch,3159,0,A28B8TGLQO1ZBD,16,0,,0
5230,1,best,merly,1,Catch,1549,1,A28B8TGLQO1ZBD,17,0,,0
5231,1,GB,splog,0,Test,2418,0,A28B8TGLQO1ZBD,18,0,o,1
5232,0,GG,smeck,0,Test,1603,1,A28B8TGLQO1ZBD,19,0,e,1
5233,1,BB,shpivg,1,Test,3647,0,A28B8TGLQO1ZBD,20,0,i,0
5234,1,BB,vmebg,1,Test,3421,0,A28B8TGLQO1ZBD,21,0,e,1
5235,1,best,dellous,1,Catch,1683,1,A28B8TGLQO1ZBD,22,0,,1
5236,1,GB,slemg,0,Test,2289,1,A28B8TGLQO1ZBD,23,0,e,0
5237,1,worst,psatrl,1,Catch,2288,0,A28B8TGLQO1ZBD,24,0,,1
5238,0,BG,znin,1,Test,1703,0,A28B8TGLQO1ZBD,25,0,i,0
5239,0,BG,zboss,1,Test,1804,0,A28B8TGLQO1ZBD,26,0,o,1
5240,1,BB,srishf,1,Test,4345,0,A28B8TGLQO1ZBD,27,0,i,0
5241,0,BG,shnog,1,Test,2177,1,A28B8TGLQO1ZBD,28,0,o,1
5242,1,BB,hroothf,1,Test,3124,0,A28B8TGLQO1ZBD,29,0,oo,1
5243,1,GB,klefp,0,Test,2220,0,A28B8TGLQO1ZBD,30,0,e,0
5244,0,GG,krat,0,Test,1481,1,A28B8TGLQO1ZBD,31,0,a,0
5245,1,best,spellion,1,Catch,1732,1,A28B8TGLQO1ZBD,32,0,,0
5246,1,best,bressic,1,Catch,2065,1,A28B8TGLQO1ZBD,33,0,,0
5247,1,BB,thloosf,1,Test,1715,0,A28B8TGLQO1ZBD,34,0,oo,1
5248,1,worst,tmoz,1,Catch,1932,0,A28B8TGLQO1ZBD,35,0,,1
5249,1,best,claffer,1,Catch,2311,1,A28B8TGLQO1ZBD,36,0,,1
5250,1,BB,zmopk,1,Test,1848,0,A28B8TGLQO1ZBD,37,0,o,1
5304,1,worst,psatrl,1,Catch,10904,0,A28RX7L0QZ993M,2,0,,0
5305,0,BG,lrim,1,Test,9706,1,A28RX7L0QZ993M,3,0,i,0
5306,1,BB,shpivg,1,Test,6959,0,A28RX7L0QZ993M,4,0,i,1
5307,1,GB,gruzv,0,Test,3055,0,A28RX7L0QZ993M,5,0,u,0
5308,0,BG,shlaff,1,Test,7348,0,A28RX7L0QZ993M,6,0,a,1
5309,1,GB,klefp,0,Test,1505,0,A28RX7L0QZ993M,7,0,e,1
5310,1,best,claffer,1,Catch,2232,1,A28RX7L0QZ993M,8,0,,0
5311,1,best,merly,1,Catch,1465,1,A28RX7L0QZ993M,9,0,,0
5312,0,BG,znin,1,Test,2488,0,A28RX7L0QZ993M,10,0,i,1
5313,0,GG,drell,0,Test,2062,1,A28RX7L0QZ993M,11,0,e,1
5314,1,GB,slemg,0,Test,1822,0,A28RX7L0QZ993M,12,0,e,0
5315,1,worst,lbifth,1,Catch,1796,0,A28RX7L0QZ993M,13,0,,0
5316,1,GB,throozg,0,Test,2468,0,A28RX7L0QZ993M,14,0,oo,1
5317,1,BB,srishf,1,Test,1675,0,A28RX7L0QZ993M,15,0,i,0
5318,1,worst,zgdivl,1,Catch,1346,0,A28RX7L0QZ993M,16,0,,1
5319,0,BG,zboss,1,Test,2042,0,A28RX7L0QZ993M,17,0,o,0
5320,1,BB,thloosf,1,Test,1426,0,A28RX7L0QZ993M,18,0,oo,0
5321,0,BG,shnog,1,Test,5438,0,A28RX7L0QZ993M,19,0,o,1
5322,1,worst,krlisg,1,Catch,1206,0,A28RX7L0QZ993M,20,0,,1
5323,1,worst,wlramr,1,Catch,1109,0,A28RX7L0QZ993M,21,0,,1
5324,0,GG,smeck,0,Test,1654,1,A28RX7L0QZ993M,22,0,e,1
5325,1,GB,trooshp,0,Test,1702,0,A28RX7L0QZ993M,23,0,oo,1
5326,0,GG,pruss,0,Test,1426,1,A28RX7L0QZ993M,24,0,u,1
5327,0,GG,krat,0,Test,2231,1,A28RX7L0QZ993M,25,0,a,0
5328,1,worst,tmoz,1,Catch,1574,0,A28RX7L0QZ993M,26,0,,0
5329,1,BB,hroothf,1,Test,1497,0,A28RX7L0QZ993M,27,0,oo,1
5330,1,BB,zmopk,1,Test,1147,0,A28RX7L0QZ993M,28,0,o,1
5331,1,best,dellous,1,Catch,1686,1,A28RX7L0QZ993M,29,0,,0
5332,1,best,spellion,1,Catch,1079,1,A28RX7L0QZ993M,30,0,,0
5333,1,best,bressic,1,Catch,1145,1,A28RX7L0QZ993M,31,0,,0
5334,0,GG,plag,0,Test,1098,1,A28RX7L0QZ993M,32,0,a,0
5335,0,BG,vnad,1,Test,1206,0,A28RX7L0QZ993M,33,0,a,1
5336,1,BB,vmebg,1,Test,1626,0,A28RX7L0QZ993M,34,0,e,0
5337,1,best,frotion,1,Catch,1434,1,A28RX7L0QZ993M,35,0,,0
5338,0,GG,swuff,0,Test,2326,1,A28RX7L0QZ993M,36,0,u,1
5339,1,GB,splog,0,Test,1433,0,A28RX7L0QZ993M,37,0,o,1
5430,1,BB,vmebg,1,Test,11105,0,A2AS1XVESKIKG,2,0,e,0
5431,1,BB,hroothf,1,Test,9225,0,A2AS1XVESKIKG,3,0,oo,1
5432,1,worst,wlramr,1,Catch,8327,1,A2AS1XVESKIKG,4,0,,0
5433,1,worst,psatrl,1,Catch,8228,0,A2AS1XVESKIKG,5,0,,1
5434,1,GB,slemg,0,Test,6573,0,A2AS1XVESKIKG,6,0,e,1
5435,1,worst,krlisg,1,Catch,5877,0,A2AS1XVESKIKG,7,0,,1
5436,0,GG,swuff,0,Test,5752,1,A2AS1XVESKIKG,8,0,u,1
5437,0,GG,plag,0,Test,5675,1,A2AS1XVESKIKG,9,0,a,0
5438,1,best,claffer,1,Catch,6640,1,A2AS1XVESKIKG,10,0,,0
5439,1,best,dellous,1,Catch,5607,1,A2AS1XVESKIKG,11,0,,1
5440,1,GB,trooshp,0,Test,6421,0,A2AS1XVESKIKG,12,0,oo,0
5441,1,best,merly,1,Catch,4510,1,A2AS1XVESKIKG,13,0,,0
5442,1,worst,tmoz,1,Catch,4884,0,A2AS1XVESKIKG,14,0,,1
5443,0,GG,drell,0,Test,4885,1,A2AS1XVESKIKG,15,0,e,1
5444,0,BG,zboss,1,Test,5680,0,A2AS1XVESKIKG,16,0,o,0
5445,0,GG,krat,0,Test,5340,1,A2AS1XVESKIKG,17,0,a,1
5446,1,best,frotion,1,Catch,5709,1,A2AS1XVESKIKG,18,0,,0
5447,1,worst,zgdivl,1,Catch,4668,0,A2AS1XVESKIKG,19,0,,1
5448,1,worst,lbifth,1,Catch,5046,0,A2AS1XVESKIKG,20,0,,0
5449,1,BB,zmopk,1,Test,4108,0,A2AS1XVESKIKG,21,0,o,0
5450,0,BG,shlaff,1,Test,6893,1,A2AS1XVESKIKG,22,0,a,1
5451,1,GB,klefp,0,Test,5262,1,A2AS1XVESKIKG,23,0,e,0
5452,0,BG,znin,1,Test,3334,0,A2AS1XVESKIKG,24,0,i,0
5453,0,BG,shnog,1,Test,4032,1,A2AS1XVESKIKG,25,0,o,1
5454,0,GG,pruss,0,Test,4683,1,A2AS1XVESKIKG,26,0,u,1
5455,1,best,bressic,1,Catch,3414,1,A2AS1XVESKIKG,27,0,,0
5456,1,GB,gruzv,0,Test,3333,0,A2AS1XVESKIKG,28,0,u,1
5457,0,BG,lrim,1,Test,4598,0,A2AS1XVESKIKG,29,0,i,0
5458,1,GB,throozg,0,Test,3845,0,A2AS1XVESKIKG,30,0,oo,0
5459,0,GG,smeck,0,Test,2797,1,A2AS1XVESKIKG,31,0,e,1
5460,0,BG,vnad,1,Test,3460,0,A2AS1XVESKIKG,32,0,a,0
5461,1,best,spellion,1,Catch,3846,1,A2AS1XVESKIKG,33,0,,1
5462,1,BB,thloosf,1,Test,3176,0,A2AS1XVESKIKG,34,0,oo,0
5463,1,BB,shpivg,1,Test,3574,0,A2AS1XVESKIKG,35,0,i,1
5464,1,GB,splog,0,Test,3357,0,A2AS1XVESKIKG,36,0,o,1
5465,1,BB,srishf,1,Test,3247,0,A2AS1XVESKIKG,37,0,i,0
5638,1,best,bressic,1,Catch,15960,1,A2DLH5XGBNYXWS,2,0,,1
5639,0,GG,drell,0,Test,4528,1,A2DLH5XGBNYXWS,3,0,e,0
5640,1,best,spellion,1,Catch,4254,1,A2DLH5XGBNYXWS,4,0,,1
5641,1,worst,lbifth,1,Catch,2567,0,A2DLH5XGBNYXWS,5,0,,0
5642,0,BG,shnog,1,Test,9408,1,A2DLH5XGBNYXWS,6,0,o,1
5643,0,BG,zboss,1,Test,2023,0,A2DLH5XGBNYXWS,7,0,o,0
5644,1,BB,srishf,1,Test,2353,0,A2DLH5XGBNYXWS,8,0,i,1
5645,0,BG,znin,1,Test,2176,0,A2DLH5XGBNYXWS,9,0,i,0
5646,0,BG,vnad,1,Test,3270,0,A2DLH5XGBNYXWS,10,0,a,1
5647,1,best,claffer,1,Catch,1813,1,A2DLH5XGBNYXWS,11,0,,0
5648,1,worst,zgdivl,1,Catch,2064,0,A2DLH5XGBNYXWS,12,0,,1
5649,1,worst,psatrl,1,Catch,2575,0,A2DLH5XGBNYXWS,13,0,,1
5650,1,GB,klefp,0,Test,2101,0,A2DLH5XGBNYXWS,14,0,e,0
5651,0,BG,shlaff,1,Test,1919,1,A2DLH5XGBNYXWS,15,0,a,1
5652,1,BB,hroothf,1,Test,2696,0,A2DLH5XGBNYXWS,16,0,oo,0
5653,1,best,merly,1,Catch,2479,1,A2DLH5XGBNYXWS,17,0,,1
5654,0,GG,smeck,0,Test,2016,1,A2DLH5XGBNYXWS,18,0,e,0
5655,1,BB,shpivg,1,Test,6336,0,A2DLH5XGBNYXWS,19,0,i,1
5656,1,GB,slemg,0,Test,2262,0,A2DLH5XGBNYXWS,20,0,e,1
5657,1,GB,gruzv,0,Test,3417,0,A2DLH5XGBNYXWS,21,0,u,0
5658,0,GG,krat,0,Test,3159,1,A2DLH5XGBNYXWS,22,0,a,0
5659,0,GG,pruss,0,Test,2259,1,A2DLH5XGBNYXWS,23,0,u,1
5660,1,worst,krlisg,1,Catch,1909,0,A2DLH5XGBNYXWS,24,0,,0
5661,1,GB,throozg,0,Test,3352,0,A2DLH5XGBNYXWS,25,0,oo,1
5662,0,GG,swuff,0,Test,2730,1,A2DLH5XGBNYXWS,26,0,u,0
5663,0,BG,lrim,1,Test,5416,0,A2DLH5XGBNYXWS,27,0,i,0
5664,1,BB,thloosf,1,Test,3681,0,A2DLH5XGBNYXWS,28,0,oo,1
5665,1,worst,wlramr,1,Catch,2836,0,A2DLH5XGBNYXWS,29,0,,1
5666,0,GG,plag,0,Test,4506,1,A2DLH5XGBNYXWS,30,0,a,1
5667,1,GB,splog,0,Test,1817,0,A2DLH5XGBNYXWS,31,0,o,1
5668,1,worst,tmoz,1,Catch,1695,0,A2DLH5XGBNYXWS,32,0,,1
5669,1,GB,trooshp,0,Test,4391,0,A2DLH5XGBNYXWS,33,0,oo,1
5670,1,BB,zmopk,1,Test,2360,0,A2DLH5XGBNYXWS,34,0,o,0
5671,1,BB,vmebg,1,Test,3075,0,A2DLH5XGBNYXWS,35,0,e,0
5672,1,best,dellous,1,Catch,2183,1,A2DLH5XGBNYXWS,36,0,,0
5673,1,best,frotion,1,Catch,3472,1,A2DLH5XGBNYXWS,37,0,,1
5682,0,GG,smeck,0,Test,6131,1,A2DNLH03YCHBOV,2,0,e,0
5683,1,BB,zmopk,1,Test,1803,0,A2DNLH03YCHBOV,3,0,o,0
5684,1,BB,thloosf,1,Test,2738,0,A2DNLH03YCHBOV,4,0,oo,1
5685,1,BB,srishf,1,Test,1817,0,A2DNLH03YCHBOV,5,0,i,0
5686,0,BG,zboss,1,Test,3282,1,A2DNLH03YCHBOV,6,0,o,0
5687,1,worst,krlisg,1,Catch,2446,0,A2DNLH03YCHBOV,7,0,,1
5688,1,best,dellous,1,Catch,1767,1,A2DNLH03YCHBOV,8,0,,1
5689,1,worst,zgdivl,1,Catch,1397,0,A2DNLH03YCHBOV,9,0,,1
5690,1,best,claffer,1,Catch,1500,1,A2DNLH03YCHBOV,10,0,,0
5691,1,worst,tmoz,1,Catch,1681,0,A2DNLH03YCHBOV,11,0,,0
5692,0,GG,drell,0,Test,1442,1,A2DNLH03YCHBOV,12,0,e,0
5693,0,BG,shlaff,1,Test,1893,1,A2DNLH03YCHBOV,13,0,a,1
5694,1,GB,slemg,0,Test,3036,0,A2DNLH03YCHBOV,14,0,e,0
5695,1,best,spellion,1,Catch,1705,1,A2DNLH03YCHBOV,15,0,,0
5696,1,best,frotion,1,Catch,2489,1,A2DNLH03YCHBOV,16,0,,1
5697,1,GB,gruzv,0,Test,2194,0,A2DNLH03YCHBOV,17,0,u,1
5698,1,worst,psatrl,1,Catch,1471,0,A2DNLH03YCHBOV,18,0,,0
5699,1,best,bressic,1,Catch,1374,1,A2DNLH03YCHBOV,19,0,,0
5700,1,GB,klefp,0,Test,3581,1,A2DNLH03YCHBOV,20,0,e,1
5701,1,worst,lbifth,1,Catch,2253,0,A2DNLH03YCHBOV,21,0,,1
5702,0,BG,znin,1,Test,1521,0,A2DNLH03YCHBOV,22,0,i,0
5703,0,GG,krat,0,Test,1404,1,A2DNLH03YCHBOV,23,0,a,1
5704,0,BG,vnad,1,Test,2269,0,A2DNLH03YCHBOV,24,0,a,0
5705,1,BB,vmebg,1,Test,1386,0,A2DNLH03YCHBOV,25,0,e,0
5706,0,GG,swuff,0,Test,1813,1,A2DNLH03YCHBOV,26,0,u,1
5707,1,BB,hroothf,1,Test,2038,0,A2DNLH03YCHBOV,27,0,oo,1
5708,1,GB,throozg,0,Test,2136,0,A2DNLH03YCHBOV,28,0,oo,1
5709,1,GB,trooshp,0,Test,1654,0,A2DNLH03YCHBOV,29,0,oo,1
5710,1,BB,shpivg,1,Test,1583,0,A2DNLH03YCHBOV,30,0,i,0
5711,0,BG,shnog,1,Test,1893,1,A2DNLH03YCHBOV,31,0,o,0
5712,1,worst,wlramr,1,Catch,1213,0,A2DNLH03YCHBOV,32,0,,0
5713,1,best,merly,1,Catch,1390,1,A2DNLH03YCHBOV,33,0,,1
5714,0,GG,plag,0,Test,1529,1,A2DNLH03YCHBOV,34,0,a,1
5715,0,GG,pruss,0,Test,1201,1,A2DNLH03YCHBOV,35,0,u,1
5716,1,GB,splog,0,Test,1932,0,A2DNLH03YCHBOV,36,0,o,0
5717,0,BG,lrim,1,Test,1371,1,A2DNLH03YCHBOV,37,0,i,0
5726,1,GB,frid,0,Test,10062,1,A2EC46CDNU5OVY,2,3,i,1
5727,0,GG,grun,0,Test,4628,1,A2EC46CDNU5OVY,3,3,u,1
5728,1,BB,shtefsh,1,Test,4756,0,A2EC46CDNU5OVY,4,3,e,1
5729,1,worst,tmoz,1,Catch,1965,0,A2EC46CDNU5OVY,5,3,,1
5730,0,BG,hrool,1,Test,3261,0,A2EC46CDNU5OVY,6,3,oo,1
5731,0,GG,splot,0,Test,3610,1,A2EC46CDNU5OVY,7,3,o,0
5732,1,worst,psatrl,1,Catch,2269,0,A2EC46CDNU5OVY,8,3,,0
5733,1,best,dellous,1,Catch,1749,1,A2EC46CDNU5OVY,9,3,,0
5734,0,BG,vmep,1,Test,2726,0,A2EC46CDNU5OVY,10,3,e,1
5735,1,best,frotion,1,Catch,2852,1,A2EC46CDNU5OVY,11,3,,0
5736,0,GG,klep,0,Test,5460,1,A2EC46CDNU5OVY,12,3,e,0
5737,1,BB,fmen,1,Test,2271,0,A2EC46CDNU5OVY,13,3,e,1
5738,0,BG,thloo,1,Test,3275,0,A2EC46CDNU5OVY,14,3,oo,1
5739,0,GG,sle,0,Test,2412,1,A2EC46CDNU5OVY,15,3,e,0
5740,1,GB,skashk,0,Test,3431,0,A2EC46CDNU5OVY,16,3,a,0
5741,1,GB,shritp,0,Test,3389,0,A2EC46CDNU5OVY,17,3,i,0
5742,0,GG,throoz,0,Test,4676,1,A2EC46CDNU5OVY,18,3,oo,1
5743,1,best,spellion,1,Catch,1676,1,A2EC46CDNU5OVY,19,3,,1
5744,0,BG,shpizz,1,Test,8404,1,A2EC46CDNU5OVY,20,3,i,1
5745,1,worst,krlisg,1,Catch,1949,0,A2EC46CDNU5OVY,21,3,,1
5746,1,BB,vlathp,1,Test,2397,0,A2EC46CDNU5OVY,22,3,a,0
5747,1,BB,tlav,1,Test,3898,0,A2EC46CDNU5OVY,23,3,a,0
5748,0,BG,zmock,1,Test,3732,0,A2EC46CDNU5OVY,24,3,o,1
5749,1,best,claffer,1,Catch,1717,1,A2EC46CDNU5OVY,25,3,,1
5750,1,worst,wlramr,1,Catch,1629,0,A2EC46CDNU5OVY,26,3,,1
5751,1,best,merly,1,Catch,4101,1,A2EC46CDNU5OVY,27,3,,0
5752,1,BB,thnukp,1,Test,1581,0,A2EC46CDNU5OVY,28,3,u,0
5753,1,GB,spoz,0,Test,2436,0,A2EC46CDNU5OVY,29,3,o,0
5754,1,worst,lbifth,1,Catch,2332,0,A2EC46CDNU5OVY,30,3,,1
5755,1,best,bressic,1,Catch,4157,1,A2EC46CDNU5OVY,31,3,,0
5756,0,GG,troom,0,Test,6469,1,A2EC46CDNU5OVY,32,3,oo,0
5757,0,BG,srid,1,Test,2853,1,A2EC46CDNU5OVY,33,3,i,0
5758,1,GB,flathk,0,Test,1517,0,A2EC46CDNU5OVY,34,3,a,0
5759,1,GB,blofk,0,Test,1799,0,A2EC46CDNU5OVY,35,3,o,0
5760,1,BB,zdumth,1,Test,1897,0,A2EC46CDNU5OVY,36,3,u,1
5761,1,worst,zgdivl,1,Catch,1716,0,A2EC46CDNU5OVY,37,3,,1
5897,0,BG,vmep,1,Test,6866,0,A2F1JTU06CO6VD,2,3,e,0
5898,1,best,frotion,1,Catch,7090,1,A2F1JTU06CO6VD,3,3,,1
5899,1,worst,krlisg,1,Catch,2158,0,A2F1JTU06CO6VD,4,3,,1
5900,1,worst,zgdivl,1,Catch,1439,0,A2F1JTU06CO6VD,5,3,,1
5901,1,BB,vlathp,1,Test,3154,0,A2F1JTU06CO6VD,6,3,a,0
5902,0,BG,zmock,1,Test,3197,0,A2F1JTU06CO6VD,7,3,o,1
5903,0,GG,throoz,0,Test,2314,1,A2F1JTU06CO6VD,8,3,oo,0
5904,0,GG,troom,0,Test,2038,1,A2F1JTU06CO6VD,9,3,oo,0
5905,0,BG,thloo,1,Test,2177,0,A2F1JTU06CO6VD,10,3,oo,0
5906,1,best,spellion,1,Catch,3316,1,A2F1JTU06CO6VD,11,3,,1
5907,1,worst,psatrl,1,Catch,1609,0,A2F1JTU06CO6VD,12,3,,1
5908,0,GG,splot,0,Test,2259,1,A2F1JTU06CO6VD,13,3,o,1
5909,1,best,claffer,1,Catch,2083,1,A2F1JTU06CO6VD,14,3,,0
5910,1,best,bressic,1,Catch,2636,1,A2F1JTU06CO6VD,15,3,,1
5911,1,BB,zdumth,1,Test,2448,0,A2F1JTU06CO6VD,16,3,u,0
5912,0,BG,shpizz,1,Test,2185,0,A2F1JTU06CO6VD,17,3,i,1
5913,0,BG,srid,1,Test,2466,0,A2F1JTU06CO6VD,18,3,i,0
5914,0,GG,klep,0,Test,1865,1,A2F1JTU06CO6VD,19,3,e,0
5915,1,GB,shritp,0,Test,1974,0,A2F1JTU06CO6VD,20,3,i,0
5916,1,GB,flathk,0,Test,3093,0,A2F1JTU06CO6VD,21,3,a,0
5917,1,worst,tmoz,1,Catch,1623,0,A2F1JTU06CO6VD,22,3,,0
5918,1,GB,blofk,0,Test,2080,0,A2F1JTU06CO6VD,23,3,o,0
5919,1,GB,frid,0,Test,2420,0,A2F1JTU06CO6VD,24,3,i,1
5920,1,GB,skashk,0,Test,1833,0,A2F1JTU06CO6VD,25,3,a,0
5921,1,BB,fmen,1,Test,2581,0,A2F1JTU06CO6VD,26,3,e,1
5922,1,best,dellous,1,Catch,2141,1,A2F1JTU06CO6VD,27,3,,1
5923,0,GG,sle,0,Test,2265,1,A2F1JTU06CO6VD,28,3,e,0
5924,1,BB,tlav,1,Test,3394,0,A2F1JTU06CO6VD,29,3,a,1
5925,1,BB,thnukp,1,Test,1785,0,A2F1JTU06CO6VD,30,3,u,0
5926,1,worst,wlramr,1,Catch,1953,0,A2F1JTU06CO6VD,31,3,,0
5927,1,worst,lbifth,1,Catch,2082,0,A2F1JTU06CO6VD,32,3,,1
5928,1,BB,shtefsh,1,Test,2083,0,A2F1JTU06CO6VD,33,3,e,0
5929,1,GB,spoz,0,Test,2568,0,A2F1JTU06CO6VD,34,3,o,1
5930,0,BG,hrool,1,Test,2114,0,A2F1JTU06CO6VD,35,3,oo,0
5931,1,best,merly,1,Catch,3093,1,A2F1JTU06CO6VD,36,3,,0
5932,0,GG,grun,0,Test,2284,1,A2F1JTU06CO6VD,37,3,u,0
6059,1,best,frotion,1,Catch,12225,1,A2H8GNSEVUJXYL,2,2,,1
6060,1,best,claffer,1,Catch,3454,0,A2H8GNSEVUJXYL,3,2,,0
6061,1,GB,snopk,0,Test,2332,0,A2H8GNSEVUJXYL,4,2,o,0
6062,1,worst,krlisg,1,Catch,1762,0,A2H8GNSEVUJXYL,5,2,,1
6063,0,BG,tlag,1,Test,2035,0,A2H8GNSEVUJXYL,6,2,a,1
6064,1,GB,stroothf,0,Test,1649,0,A2H8GNSEVUJXYL,7,2,oo,0
6065,0,GG,flad,0,Test,3208,0,A2H8GNSEVUJXYL,8,2,a,0
6066,1,best,merly,1,Catch,1769,0,A2H8GNSEVUJXYL,9,2,,1
6067,1,worst,wlramr,1,Catch,1951,0,A2H8GNSEVUJXYL,10,2,,0
6068,1,GB,glishf,0,Test,1559,0,A2H8GNSEVUJXYL,11,2,i,0
6069,1,best,dellous,1,Catch,1589,1,A2H8GNSEVUJXYL,12,2,,0
6070,0,BG,zduss,1,Test,1870,0,A2H8GNSEVUJXYL,13,2,u,1
6071,0,GG,spog,0,Test,2142,0,A2H8GNSEVUJXYL,14,2,o,1
6072,1,best,bressic,1,Catch,1542,1,A2H8GNSEVUJXYL,15,2,,1
6073,1,best,spellion,1,Catch,1477,1,A2H8GNSEVUJXYL,16,2,,0
6074,0,GG,skaff,0,Test,1433,1,A2H8GNSEVUJXYL,17,2,a,1
6075,1,BB,vremg,1,Test,1269,0,A2H8GNSEVUJXYL,18,2,e,1
6076,1,BB,thmog,1,Test,1256,0,A2H8GNSEVUJXYL,19,2,o,1
6077,1,GB,brivg,0,Test,1424,0,A2H8GNSEVUJXYL,20,2,i,1
6078,1,BB,dlefp,1,Test,1835,0,A2H8GNSEVUJXYL,21,2,e,0
6079,0,GG,frim,0,Test,1788,1,A2H8GNSEVUJXYL,22,2,i,1
6080,0,BG,vlat,1,Test,3193,0,A2H8GNSEVUJXYL,23,2,a,0
6081,1,worst,lbifth,1,Catch,1328,0,A2H8GNSEVUJXYL,24,2,,0
6082,1,worst,zgdivl,1,Catch,1302,0,A2H8GNSEVUJXYL,25,2,,1
6083,1,BB,zgooshp,1,Test,1411,0,A2H8GNSEVUJXYL,26,2,oo,1
6084,1,GB,skrebg,0,Test,1018,0,A2H8GNSEVUJXYL,27,2,e,1
6085,1,worst,psatrl,1,Catch,1100,0,A2H8GNSEVUJXYL,28,2,,1
6086,1,BB,shkuzv,1,Test,868,0,A2H8GNSEVUJXYL,29,2,u,1
6087,0,GG,shrin,0,Test,1436,1,A2H8GNSEVUJXYL,30,2,i,0
6088,0,BG,fmeck,1,Test,1426,0,A2H8GNSEVUJXYL,31,2,e,1
6089,0,GG,bloss,0,Test,1231,1,A2H8GNSEVUJXYL,32,2,o,1
6090,0,BG,thnuff,1,Test,2448,0,A2H8GNSEVUJXYL,33,2,u,0
6091,1,worst,tmoz,1,Catch,1500,0,A2H8GNSEVUJXYL,34,2,,1
6092,0,BG,shtell,1,Test,2529,1,A2H8GNSEVUJXYL,35,2,e,0
6093,1,BB,fnoozg,1,Test,1142,0,A2H8GNSEVUJXYL,36,2,oo,0
6094,1,GB,stoosf,0,Test,1219,0,A2H8GNSEVUJXYL,37,2,oo,0
6148,0,BG,shtell,1,Test,5721,0,A2I71MVTUTFCLK,2,2,e,0
6149,0,GG,shrin,0,Test,3254,0,A2I71MVTUTFCLK,3,2,i,1
6150,1,worst,krlisg,1,Catch,3844,0,A2I71MVTUTFCLK,4,2,,0
6151,1,worst,tmoz,1,Catch,3953,0,A2I71MVTUTFCLK,5,2,,1
6152,0,GG,flad,0,Test,4025,0,A2I71MVTUTFCLK,6,2,a,0
6153,1,best,frotion,1,Catch,3902,1,A2I71MVTUTFCLK,7,2,,0
6154,1,best,merly,1,Catch,3350,1,A2I71MVTUTFCLK,8,2,,0
6155,1,GB,stroothf,0,Test,3335,0,A2I71MVTUTFCLK,9,2,oo,0
6156,1,BB,fnoozg,1,Test,3978,0,A2I71MVTUTFCLK,10,2,oo,0
6157,1,BB,shkuzv,1,Test,4203,0,A2I71MVTUTFCLK,11,2,u,0
6158,1,GB,skrebg,0,Test,3844,0,A2I71MVTUTFCLK,12,2,e,0
6159,0,GG,spog,0,Test,3700,1,A2I71MVTUTFCLK,13,2,o,1
6160,1,worst,lbifth,1,Catch,3633,0,A2I71MVTUTFCLK,14,2,,0
6161,0,GG,skaff,0,Test,2843,0,A2I71MVTUTFCLK,15,2,a,0
6162,1,worst,zgdivl,1,Catch,2607,0,A2I71MVTUTFCLK,16,2,,0
6163,1,BB,dlefp,1,Test,4113,0,A2I71MVTUTFCLK,17,2,e,1
6164,1,worst,wlramr,1,Catch,4148,0,A2I71MVTUTFCLK,18,2,,1
6165,1,BB,vremg,1,Test,3309,0,A2I71MVTUTFCLK,19,2,e,0
6166,0,BG,vlat,1,Test,2807,0,A2I71MVTUTFCLK,20,2,a,1
6167,0,GG,frim,0,Test,4146,0,A2I71MVTUTFCLK,21,2,i,0
6168,0,BG,thnuff,1,Test,4229,0,A2I71MVTUTFCLK,22,2,u,1
6169,1,best,claffer,1,Catch,2854,1,A2I71MVTUTFCLK,23,2,,0
6170,1,best,spellion,1,Catch,3055,1,A2I71MVTUTFCLK,24,2,,0
6171,1,worst,psatrl,1,Catch,3492,0,A2I71MVTUTFCLK,25,2,,0
6172,1,GB,brivg,0,Test,1981,0,A2I71MVTUTFCLK,26,2,i,1
6173,0,BG,tlag,1,Test,1978,0,A2I71MVTUTFCLK,27,2,a,1
6174,0,BG,zduss,1,Test,3242,0,A2I71MVTUTFCLK,28,2,u,0
6175,0,GG,bloss,0,Test,2057,1,A2I71MVTUTFCLK,29,2,o,1
6176,1,best,bressic,1,Catch,2694,1,A2I71MVTUTFCLK,30,2,,0
6177,1,BB,thmog,1,Test,3048,0,A2I71MVTUTFCLK,31,2,o,1
6178,1,GB,glishf,0,Test,2487,0,A2I71MVTUTFCLK,32,2,i,0
6179,1,GB,stoosf,0,Test,3212,0,A2I71MVTUTFCLK,33,2,oo,0
6180,0,BG,fmeck,1,Test,3053,0,A2I71MVTUTFCLK,34,2,e,0
6181,1,BB,zgooshp,1,Test,3515,0,A2I71MVTUTFCLK,35,2,oo,0
6182,1,GB,snopk,0,Test,2584,0,A2I71MVTUTFCLK,36,2,o,1
6183,1,best,dellous,1,Catch,4216,1,A2I71MVTUTFCLK,37,2,,1
6237,0,BG,thnuff,1,Test,14388,0,A2JIAEQS1I96N4,2,2,u,1
6238,0,GG,bloss,0,Test,3881,1,A2JIAEQS1I96N4,3,2,o,1
6239,1,best,dellous,1,Catch,4017,1,A2JIAEQS1I96N4,4,2,,0
6240,1,BB,zgooshp,1,Test,3223,0,A2JIAEQS1I96N4,5,2,oo,1
6241,0,BG,zduss,1,Test,2321,0,A2JIAEQS1I96N4,6,2,u,1
6242,0,BG,tlag,1,Test,2991,0,A2JIAEQS1I96N4,7,2,a,1
6243,0,GG,skaff,0,Test,1878,1,A2JIAEQS1I96N4,8,2,a,1
6244,1,best,frotion,1,Catch,2682,1,A2JIAEQS1I96N4,9,2,,0
6245,1,worst,tmoz,1,Catch,2903,0,A2JIAEQS1I96N4,10,2,,0
6246,1,best,merly,1,Catch,3536,1,A2JIAEQS1I96N4,11,2,,1
6247,1,best,claffer,1,Catch,2341,1,A2JIAEQS1I96N4,12,2,,0
6248,0,GG,frim,0,Test,3058,1,A2JIAEQS1I96N4,13,2,i,0
6249,1,best,spellion,1,Catch,1643,1,A2JIAEQS1I96N4,14,2,,0
6250,0,GG,shrin,0,Test,1947,1,A2JIAEQS1I96N4,15,2,i,1
6251,1,worst,zgdivl,1,Catch,2365,0,A2JIAEQS1I96N4,16,2,,0
6252,1,GB,snopk,0,Test,2229,0,A2JIAEQS1I96N4,17,2,o,1
6253,0,BG,vlat,1,Test,3900,0,A2JIAEQS1I96N4,18,2,a,0
6254,1,worst,psatrl,1,Catch,1916,0,A2JIAEQS1I96N4,19,2,,1
6255,1,worst,lbifth,1,Catch,1600,0,A2JIAEQS1I96N4,20,2,,1
6256,1,BB,shkuzv,1,Test,2509,0,A2JIAEQS1I96N4,21,2,u,0
6257,0,BG,fmeck,1,Test,3187,1,A2JIAEQS1I96N4,22,2,e,1
6258,0,GG,flad,0,Test,2086,1,A2JIAEQS1I96N4,23,2,a,0
6259,1,GB,brivg,0,Test,1832,0,A2JIAEQS1I96N4,24,2,i,0
6260,1,BB,dlefp,1,Test,1339,0,A2JIAEQS1I96N4,25,2,e,0
6261,1,GB,stoosf,0,Test,3646,0,A2JIAEQS1I96N4,26,2,oo,0
6262,1,GB,stroothf,0,Test,2542,0,A2JIAEQS1I96N4,27,2,oo,1
6263,1,BB,thmog,1,Test,1769,0,A2JIAEQS1I96N4,28,2,o,1
6264,1,BB,vremg,1,Test,1704,0,A2JIAEQS1I96N4,29,2,e,1
6265,1,BB,fnoozg,1,Test,1890,1,A2JIAEQS1I96N4,30,2,oo,1
6266,1,worst,wlramr,1,Catch,2624,0,A2JIAEQS1I96N4,31,2,,0
6267,1,worst,krlisg,1,Catch,1879,0,A2JIAEQS1I96N4,32,2,,0
6268,0,GG,spog,0,Test,1932,1,A2JIAEQS1I96N4,33,2,o,1
6269,1,GB,skrebg,0,Test,2381,0,A2JIAEQS1I96N4,34,2,e,1
6270,1,best,bressic,1,Catch,2342,1,A2JIAEQS1I96N4,35,2,,0
6271,1,GB,glishf,0,Test,3522,1,A2JIAEQS1I96N4,36,2,i,0
6272,0,BG,shtell,1,Test,2438,0,A2JIAEQS1I96N4,37,2,e,0
6317,1,best,dellous,1,Catch,7768,1,A2KA1H6AA3Y80G,2,1,,1
6318,0,BG,zgoom,1,Test,2446,0,A2KA1H6AA3Y80G,3,1,oo,0
6319,1,worst,krlisg,1,Catch,4374,0,A2KA1H6AA3Y80G,4,1,,0
6320,1,best,claffer,1,Catch,1753,1,A2KA1H6AA3Y80G,5,1,,1
6321,0,BG,dlep,1,Test,1651,0,A2KA1H6AA3Y80G,6,1,e,1
6322,1,worst,psatrl,1,Catch,2067,0,A2KA1H6AA3Y80G,7,1,,0
6323,1,best,spellion,1,Catch,2067,1,A2KA1H6AA3Y80G,8,1,,0
6324,1,BB,shlashk,1,Test,2406,0,A2KA1H6AA3Y80G,9,1,a,1
6325,0,GG,strool,0,Test,1652,1,A2KA1H6AA3Y80G,10,1,oo,0
6326,1,BB,lrid,1,Test,1696,0,A2KA1H6AA3Y80G,11,1,i,0
6327,1,worst,tmoz,1,Catch,1370,0,A2KA1H6AA3Y80G,12,1,,0
6328,1,GB,drefsh,0,Test,2663,0,A2KA1H6AA3Y80G,13,1,e,0
6329,1,BB,znitp,1,Test,1337,1,A2KA1H6AA3Y80G,14,1,i,1
6330,1,best,frotion,1,Catch,1865,1,A2KA1H6AA3Y80G,15,1,,1
6331,0,GG,skrep,0,Test,2214,1,A2KA1H6AA3Y80G,16,1,e,1
6332,1,BB,zbofk,1,Test,1708,0,A2KA1H6AA3Y80G,17,1,o,1
6333,1,GB,plav,0,Test,1899,0,A2KA1H6AA3Y80G,18,1,a,1
6334,1,BB,vnathk,1,Test,2833,0,A2KA1H6AA3Y80G,19,1,a,0
6335,0,BG,vre,1,Test,1798,0,A2KA1H6AA3Y80G,20,1,e,0
6336,1,GB,prumth,0,Test,2282,1,A2KA1H6AA3Y80G,21,1,u,0
6337,0,GG,snock,0,Test,1427,1,A2KA1H6AA3Y80G,22,1,o,0
6338,1,worst,lbifth,1,Catch,1223,0,A2KA1H6AA3Y80G,23,1,,0
6339,0,BG,fnooz,1,Test,1335,0,A2KA1H6AA3Y80G,24,1,oo,0
6340,1,GB,smen,0,Test,1270,0,A2KA1H6AA3Y80G,25,1,e,0
6341,0,GG,stoo,0,Test,1235,1,A2KA1H6AA3Y80G,26,1,oo,0
6342,0,BG,thmot,1,Test,1550,0,A2KA1H6AA3Y80G,27,1,o,1
6343,1,best,bressic,1,Catch,2890,1,A2KA1H6AA3Y80G,28,1,,1
6344,1,GB,swukp,0,Test,1188,0,A2KA1H6AA3Y80G,29,1,u,1
6345,1,worst,wlramr,1,Catch,2149,0,A2KA1H6AA3Y80G,30,1,,0
6346,1,worst,zgdivl,1,Catch,1345,0,A2KA1H6AA3Y80G,31,1,,1
6347,1,best,merly,1,Catch,1404,1,A2KA1H6AA3Y80G,32,1,,0
6348,0,GG,brizz,0,Test,1506,1,A2KA1H6AA3Y80G,33,1,i,0
6349,0,BG,shkun,1,Test,3564,1,A2KA1H6AA3Y80G,34,1,u,1
6350,0,GG,glid,0,Test,1472,1,A2KA1H6AA3Y80G,35,1,i,0
6351,1,GB,krathp,0,Test,2127,0,A2KA1H6AA3Y80G,36,1,a,1
6352,1,BB,shnoz,1,Test,1604,0,A2KA1H6AA3Y80G,37,1,o,0
6479,1,BB,zbofk,1,Test,30989,0,A2N0YNKIP6FUCV,2,1,o,1
6480,1,best,spellion,1,Catch,8011,1,A2N0YNKIP6FUCV,3,1,,0
6481,1,GB,drefsh,0,Test,6852,1,A2N0YNKIP6FUCV,4,1,e,1
6482,1,GB,prumth,0,Test,5827,1,A2N0YNKIP6FUCV,5,1,u,1
6483,0,GG,stoo,0,Test,2119,1,A2N0YNKIP6FUCV,6,1,oo,0
6484,1,GB,smen,0,Test,4211,0,A2N0YNKIP6FUCV,7,1,e,0
6485,1,best,claffer,1,Catch,1954,1,A2N0YNKIP6FUCV,8,1,,1
6486,0,BG,vre,1,Test,2902,0,A2N0YNKIP6FUCV,9,1,e,1
6487,1,worst,krlisg,1,Catch,6030,0,A2N0YNKIP6FUCV,10,1,,0
6488,0,BG,dlep,1,Test,1994,0,A2N0YNKIP6FUCV,11,1,e,1
6489,1,best,dellous,1,Catch,1905,1,A2N0YNKIP6FUCV,12,1,,0
6490,0,GG,strool,0,Test,1918,1,A2N0YNKIP6FUCV,13,1,oo,1
6491,1,best,frotion,1,Catch,1486,1,A2N0YNKIP6FUCV,14,1,,0
6492,0,GG,skrep,0,Test,2420,0,A2N0YNKIP6FUCV,15,1,e,0
6493,1,BB,znitp,1,Test,2479,0,A2N0YNKIP6FUCV,16,1,i,1
6494,1,worst,psatrl,1,Catch,2906,0,A2N0YNKIP6FUCV,17,1,,0
6495,0,BG,thmot,1,Test,2294,0,A2N0YNKIP6FUCV,18,1,o,0
6496,1,worst,wlramr,1,Catch,4756,0,A2N0YNKIP6FUCV,19,1,,1
6497,0,BG,fnooz,1,Test,3401,1,A2N0YNKIP6FUCV,20,1,oo,0
6498,1,GB,swukp,0,Test,3171,0,A2N0YNKIP6FUCV,21,1,u,0
6499,1,best,merly,1,Catch,2585,1,A2N0YNKIP6FUCV,22,1,,0
6500,1,best,bressic,1,Catch,1510,1,A2N0YNKIP6FUCV,23,1,,1
6501,1,BB,vnathk,1,Test,3033,0,A2N0YNKIP6FUCV,24,1,a,0
6502,1,worst,zgdivl,1,Catch,2914,0,A2N0YNKIP6FUCV,25,1,,0
6503,0,BG,zgoom,1,Test,1892,1,A2N0YNKIP6FUCV,26,1,oo,0
6504,1,GB,krathp,0,Test,2132,1,A2N0YNKIP6FUCV,27,1,a,1
6505,1,worst,lbifth,1,Catch,2608,0,A2N0YNKIP6FUCV,28,1,,0
6506,1,BB,lrid,1,Test,2307,0,A2N0YNKIP6FUCV,29,1,i,0
6507,0,BG,shkun,1,Test,3446,1,A2N0YNKIP6FUCV,30,1,u,0
6508,1,GB,plav,0,Test,2432,0,A2N0YNKIP6FUCV,31,1,a,1
6509,0,GG,glid,0,Test,1429,1,A2N0YNKIP6FUCV,32,1,i,0
6510,0,GG,brizz,0,Test,1278,1,A2N0YNKIP6FUCV,33,1,i,0
6511,0,GG,snock,0,Test,1419,1,A2N0YNKIP6FUCV,34,1,o,1
6512,1,worst,tmoz,1,Catch,2344,0,A2N0YNKIP6FUCV,35,1,,1
6513,1,BB,shlashk,1,Test,1858,1,A2N0YNKIP6FUCV,36,1,a,0
6514,1,BB,shnoz,1,Test,3379,0,A2N0YNKIP6FUCV,37,1,o,1
6523,1,GB,klefp,0,Test,7075,0,A2NFKOH8HAAL1P,2,0,e,1
6524,1,GB,gruzv,0,Test,6405,1,A2NFKOH8HAAL1P,3,0,u,1
6525,0,GG,plag,0,Test,6354,0,A2NFKOH8HAAL1P,4,0,a,1
6526,0,BG,zboss,1,Test,4648,0,A2NFKOH8HAAL1P,5,0,o,1
6527,1,best,merly,1,Catch,4420,1,A2NFKOH8HAAL1P,6,0,,1
6528,1,best,frotion,1,Catch,5273,1,A2NFKOH8HAAL1P,7,0,,1
6529,0,GG,swuff,0,Test,4794,1,A2NFKOH8HAAL1P,8,0,u,1
6530,1,best,bressic,1,Catch,5467,0,A2NFKOH8HAAL1P,9,0,,0
6531,1,worst,wlramr,1,Catch,13066,0,A2NFKOH8HAAL1P,10,0,,1
6532,1,BB,thloosf,1,Test,4268,0,A2NFKOH8HAAL1P,11,0,oo,0
6533,1,worst,zgdivl,1,Catch,4011,0,A2NFKOH8HAAL1P,12,0,,0
6534,1,GB,slemg,0,Test,5568,0,A2NFKOH8HAAL1P,13,0,e,1
6535,0,BG,znin,1,Test,2984,0,A2NFKOH8HAAL1P,14,0,i,0
6536,0,GG,pruss,0,Test,3257,1,A2NFKOH8HAAL1P,15,0,u,1
6537,1,best,spellion,1,Catch,3020,1,A2NFKOH8HAAL1P,16,0,,0
6538,1,BB,shpivg,1,Test,4089,0,A2NFKOH8HAAL1P,17,0,i,0
6539,1,worst,lbifth,1,Catch,3420,0,A2NFKOH8HAAL1P,18,0,,0
6540,1,GB,trooshp,0,Test,7259,0,A2NFKOH8HAAL1P,19,0,oo,1
6541,1,GB,splog,0,Test,4573,0,A2NFKOH8HAAL1P,20,0,o,1
6542,0,BG,vnad,1,Test,2473,0,A2NFKOH8HAAL1P,21,0,a,1
6543,1,BB,zmopk,1,Test,2921,0,A2NFKOH8HAAL1P,22,0,o,0
6544,1,worst,tmoz,1,Catch,3423,0,A2NFKOH8HAAL1P,23,0,,0
6545,0,BG,shnog,1,Test,2989,1,A2NFKOH8HAAL1P,24,0,o,1
6546,0,BG,lrim,1,Test,5884,0,A2NFKOH8HAAL1P,25,0,i,0
6547,1,best,claffer,1,Catch,2570,1,A2NFKOH8HAAL1P,26,0,,0
6548,1,best,dellous,1,Catch,2667,1,A2NFKOH8HAAL1P,27,0,,0
6549,0,GG,krat,0,Test,3212,1,A2NFKOH8HAAL1P,28,0,a,1
6550,1,worst,psatrl,1,Catch,4911,0,A2NFKOH8HAAL1P,29,0,,0
6551,1,BB,hroothf,1,Test,3041,0,A2NFKOH8HAAL1P,30,0,oo,0
6552,0,BG,shlaff,1,Test,2824,1,A2NFKOH8HAAL1P,31,0,a,1
6553,1,BB,srishf,1,Test,4097,0,A2NFKOH8HAAL1P,32,0,i,0
6554,1,BB,vmebg,1,Test,3038,0,A2NFKOH8HAAL1P,33,0,e,1
6555,0,GG,drell,0,Test,2174,1,A2NFKOH8HAAL1P,34,0,e,0
6556,1,GB,throozg,0,Test,3247,0,A2NFKOH8HAAL1P,35,0,oo,1
6557,0,GG,smeck,0,Test,2117,1,A2NFKOH8HAAL1P,36,0,e,0
6558,1,worst,krlisg,1,Catch,3642,0,A2NFKOH8HAAL1P,37,0,,0
6567,1,BB,hroothf,1,Test,12425,0,A2O46K86L79OJ7,2,0,oo,0
6568,1,GB,throozg,0,Test,3233,0,A2O46K86L79OJ7,3,0,oo,0
6569,1,GB,splog,0,Test,3923,1,A2O46K86L79OJ7,4,0,o,0
6570,1,GB,gruzv,0,Test,3204,0,A2O46K86L79OJ7,5,0,u,1
6571,1,worst,zgdivl,1,Catch,2028,0,A2O46K86L79OJ7,6,0,,0
6572,1,best,claffer,1,Catch,2066,1,A2O46K86L79OJ7,7,0,,1
6573,1,GB,trooshp,0,Test,3620,0,A2O46K86L79OJ7,8,0,oo,0
6574,1,worst,krlisg,1,Catch,2157,0,A2O46K86L79OJ7,9,0,,1
6575,1,best,dellous,1,Catch,1669,1,A2O46K86L79OJ7,10,0,,1
6576,0,BG,zboss,1,Test,2805,0,A2O46K86L79OJ7,11,0,o,0
6577,1,best,spellion,1,Catch,2060,1,A2O46K86L79OJ7,12,0,,1
6578,0,GG,plag,0,Test,2107,1,A2O46K86L79OJ7,13,0,a,0
6579,0,GG,krat,0,Test,1749,1,A2O46K86L79OJ7,14,0,a,1
6580,1,BB,srishf,1,Test,1623,0,A2O46K86L79OJ7,15,0,i,1
6581,1,BB,vmebg,1,Test,1435,0,A2O46K86L79OJ7,16,0,e,0
6582,0,GG,swuff,0,Test,1693,1,A2O46K86L79OJ7,17,0,u,1
6583,1,GB,klefp,0,Test,2396,0,A2O46K86L79OJ7,18,0,e,0
6584,1,BB,thloosf,1,Test,2252,0,A2O46K86L79OJ7,19,0,oo,1
6585,1,worst,psatrl,1,Catch,2724,0,A2O46K86L79OJ7,20,0,,0
6586,1,GB,slemg,0,Test,3166,0,A2O46K86L79OJ7,21,0,e,1
6587,0,GG,pruss,0,Test,1621,1,A2O46K86L79OJ7,22,0,u,0
6588,1,best,bressic,1,Catch,1532,1,A2O46K86L79OJ7,23,0,,1
6589,0,BG,shlaff,1,Test,1670,1,A2O46K86L79OJ7,24,0,a,1
6590,0,BG,znin,1,Test,1830,0,A2O46K86L79OJ7,25,0,i,1
6591,1,best,merly,1,Catch,1694,1,A2O46K86L79OJ7,26,0,,0
6592,0,GG,drell,0,Test,1493,1,A2O46K86L79OJ7,27,0,e,0
6593,0,BG,shnog,1,Test,2460,1,A2O46K86L79OJ7,28,0,o,1
6594,1,BB,shpivg,1,Test,1677,0,A2O46K86L79OJ7,29,0,i,0
6595,0,BG,lrim,1,Test,2085,1,A2O46K86L79OJ7,30,0,i,1
6596,1,BB,zmopk,1,Test,1797,0,A2O46K86L79OJ7,31,0,o,1
6597,1,worst,lbifth,1,Catch,2588,0,A2O46K86L79OJ7,32,0,,1
6598,1,worst,tmoz,1,Catch,1525,0,A2O46K86L79OJ7,33,0,,1
6599,1,best,frotion,1,Catch,1924,1,A2O46K86L79OJ7,34,0,,1
6600,1,worst,wlramr,1,Catch,1212,1,A2O46K86L79OJ7,35,0,,0
6601,0,BG,vnad,1,Test,1930,0,A2O46K86L79OJ7,36,0,a,1
6602,0,GG,smeck,0,Test,1501,1,A2O46K86L79OJ7,37,0,e,0
6730,1,worst,tmoz,1,Catch,5474,0,A2R2YZTSME1K3F,2,1,,0
6731,1,GB,swukp,0,Test,1288,1,A2R2YZTSME1K3F,3,1,u,1
6732,1,GB,smen,0,Test,1313,1,A2R2YZTSME1K3F,4,1,e,1
6733,0,BG,shkun,1,Test,1325,0,A2R2YZTSME1K3F,5,1,u,0
6734,0,GG,snock,0,Test,1382,0,A2R2YZTSME1K3F,6,1,o,1
6735,0,GG,glid,0,Test,3440,1,A2R2YZTSME1K3F,7,1,i,1
6736,0,GG,skrep,0,Test,2957,1,A2R2YZTSME1K3F,8,1,e,0
6737,1,BB,shlashk,1,Test,1899,0,A2R2YZTSME1K3F,9,1,a,0
6738,1,best,dellous,1,Catch,1798,1,A2R2YZTSME1K3F,10,1,,1
6739,1,best,claffer,1,Catch,1517,1,A2R2YZTSME1K3F,11,1,,0
6740,1,BB,znitp,1,Test,1798,0,A2R2YZTSME1K3F,12,1,i,1
6741,1,worst,zgdivl,1,Catch,1292,0,A2R2YZTSME1K3F,13,1,,1
6742,0,BG,fnooz,1,Test,1438,0,A2R2YZTSME1K3F,14,1,oo,0
6743,0,GG,strool,0,Test,1484,1,A2R2YZTSME1K3F,15,1,oo,1
6744,1,best,spellion,1,Catch,1359,1,A2R2YZTSME1K3F,16,1,,1
6745,1,GB,prumth,0,Test,2181,1,A2R2YZTSME1K3F,17,1,u,0
6746,1,best,frotion,1,Catch,1629,1,A2R2YZTSME1K3F,18,1,,1
6747,1,best,bressic,1,Catch,2315,1,A2R2YZTSME1K3F,19,1,,0
6748,1,GB,drefsh,0,Test,1720,0,A2R2YZTSME1K3F,20,1,e,1
6749,1,best,merly,1,Catch,1551,1,A2R2YZTSME1K3F,21,1,,0
6750,0,BG,dlep,1,Test,1640,0,A2R2YZTSME1K3F,22,1,e,1
6751,1,worst,wlramr,1,Catch,1945,0,A2R2YZTSME1K3F,23,1,,1
6752,1,worst,krlisg,1,Catch,1248,0,A2R2YZTSME1K3F,24,1,,1
6753,1,worst,psatrl,1,Catch,1484,0,A2R2YZTSME1K3F,25,1,,1
6754,0,GG,brizz,0,Test,1392,1,A2R2YZTSME1K3F,26,1,i,0
6755,1,BB,zbofk,1,Test,1326,0,A2R2YZTSME1K3F,27,1,o,1
6756,1,BB,lrid,1,Test,1764,0,A2R2YZTSME1K3F,28,1,i,0
6757,0,BG,zgoom,1,Test,1258,0,A2R2YZTSME1K3F,29,1,oo,0
6758,1,BB,vnathk,1,Test,1258,0,A2R2YZTSME1K3F,30,1,a,0
6759,0,BG,thmot,1,Test,1213,0,A2R2YZTSME1K3F,31,1,o,0
6760,1,worst,lbifth,1,Catch,1382,0,A2R2YZTSME1K3F,32,1,,0
6761,1,GB,plav,0,Test,1224,0,A2R2YZTSME1K3F,33,1,a,1
6762,1,BB,shnoz,1,Test,1135,0,A2R2YZTSME1K3F,34,1,o,1
6763,1,GB,krathp,0,Test,1326,0,A2R2YZTSME1K3F,35,1,a,1
6764,0,GG,stoo,0,Test,1247,1,A2R2YZTSME1K3F,36,1,oo,1
6765,0,BG,vre,1,Test,1460,0,A2R2YZTSME1K3F,37,1,e,0
6920,1,GB,drefsh,0,Test,22592,0,A2RVEG53L48BAE,2,1,e,0
6921,1,BB,lrid,1,Test,25236,1,A2RVEG53L48BAE,3,1,i,1
6922,0,BG,dlep,1,Test,2367,0,A2RVEG53L48BAE,4,1,e,0
6923,0,BG,fnooz,1,Test,3364,0,A2RVEG53L48BAE,5,1,oo,0
6924,0,BG,thmot,1,Test,2111,0,A2RVEG53L48BAE,6,1,o,0
6925,1,BB,zbofk,1,Test,2528,0,A2RVEG53L48BAE,7,1,o,0
6926,0,GG,skrep,0,Test,2625,1,A2RVEG53L48BAE,8,1,e,1
6927,1,best,dellous,1,Catch,2254,1,A2RVEG53L48BAE,9,1,,1
6928,1,worst,krlisg,1,Catch,3003,0,A2RVEG53L48BAE,10,1,,0
6929,0,BG,vre,1,Test,4178,0,A2RVEG53L48BAE,11,1,e,1
6930,1,BB,shlashk,1,Test,3092,0,A2RVEG53L48BAE,12,1,a,0
6931,1,best,claffer,1,Catch,1879,1,A2RVEG53L48BAE,13,1,,0
6932,1,BB,vnathk,1,Test,2571,0,A2RVEG53L48BAE,14,1,a,0
6933,1,GB,swukp,0,Test,2902,0,A2RVEG53L48BAE,15,1,u,1
6934,0,BG,shkun,1,Test,5652,0,A2RVEG53L48BAE,16,1,u,1
6935,1,worst,tmoz,1,Catch,2037,0,A2RVEG53L48BAE,17,1,,0
6936,1,worst,psatrl,1,Catch,4104,0,A2RVEG53L48BAE,18,1,,0
6937,0,GG,brizz,0,Test,2314,1,A2RVEG53L48BAE,19,1,i,1
6938,0,GG,glid,0,Test,1883,1,A2RVEG53L48BAE,20,1,i,0
6939,1,GB,smen,0,Test,2753,0,A2RVEG53L48BAE,21,1,e,1
6940,0,GG,stoo,0,Test,1760,1,A2RVEG53L48BAE,22,1,oo,1
6941,1,GB,prumth,0,Test,3580,0,A2RVEG53L48BAE,23,1,u,0
6942,1,GB,krathp,0,Test,2187,0,A2RVEG53L48BAE,24,1,a,0
6943,0,GG,snock,0,Test,1831,1,A2RVEG53L48BAE,25,1,o,1
6944,1,worst,zgdivl,1,Catch,1724,0,A2RVEG53L48BAE,26,1,,1
6945,1,best,frotion,1,Catch,2332,1,A2RVEG53L48BAE,27,1,,0
6946,1,BB,shnoz,1,Test,3843,0,A2RVEG53L48BAE,28,1,o,0
6947,1,best,bressic,1,Catch,1759,1,A2RVEG53L48BAE,29,1,,0
6948,1,worst,wlramr,1,Catch,2070,0,A2RVEG53L48BAE,30,1,,1
6949,1,best,spellion,1,Catch,1950,1,A2RVEG53L48BAE,31,1,,0
6950,0,GG,strool,0,Test,1654,1,A2RVEG53L48BAE,32,1,oo,0
6951,1,best,merly,1,Catch,1942,1,A2RVEG53L48BAE,33,1,,1
6952,1,worst,lbifth,1,Catch,1931,0,A2RVEG53L48BAE,34,1,,0
6953,1,GB,plav,0,Test,2285,0,A2RVEG53L48BAE,35,1,a,0
6954,0,BG,zgoom,1,Test,2430,0,A2RVEG53L48BAE,36,1,oo,1
6955,1,BB,znitp,1,Test,1638,0,A2RVEG53L48BAE,37,1,i,0
7001,1,best,frotion,1,Catch,4851,1,A2SBN6V55I5K4I,2,2,,0
7002,1,best,merly,1,Catch,2610,1,A2SBN6V55I5K4I,3,2,,0
7003,1,best,claffer,1,Catch,4695,1,A2SBN6V55I5K4I,4,2,,1
7004,1,BB,shkuzv,1,Test,2759,0,A2SBN6V55I5K4I,5,2,u,0
7005,0,BG,zduss,1,Test,1758,0,A2SBN6V55I5K4I,6,2,u,0
7006,0,GG,skaff,0,Test,2749,1,A2SBN6V55I5K4I,7,2,a,1
7007,1,best,dellous,1,Catch,2732,1,A2SBN6V55I5K4I,8,2,,1
7008,1,GB,glishf,0,Test,2058,0,A2SBN6V55I5K4I,9,2,i,0
7009,0,BG,tlag,1,Test,2937,1,A2SBN6V55I5K4I,10,2,a,0
7010,0,GG,spog,0,Test,1936,1,A2SBN6V55I5K4I,11,2,o,0
7011,0,BG,fmeck,1,Test,3372,0,A2SBN6V55I5K4I,12,2,e,1
7012,1,worst,krlisg,1,Catch,1931,0,A2SBN6V55I5K4I,13,2,,1
7013,0,BG,thnuff,1,Test,2897,1,A2SBN6V55I5K4I,14,2,u,0
7014,1,worst,wlramr,1,Catch,2120,0,A2SBN6V55I5K4I,15,2,,1
7015,1,GB,stroothf,0,Test,3512,1,A2SBN6V55I5K4I,16,2,oo,0
7016,0,BG,vlat,1,Test,1738,1,A2SBN6V55I5K4I,17,2,a,1
7017,1,best,spellion,1,Catch,1625,1,A2SBN6V55I5K4I,18,2,,0
7018,1,GB,snopk,0,Test,1780,0,A2SBN6V55I5K4I,19,2,o,1
7019,1,best,bressic,1,Catch,1732,1,A2SBN6V55I5K4I,20,2,,1
7020,1,BB,dlefp,1,Test,1654,0,A2SBN6V55I5K4I,21,2,e,1
7021,0,GG,bloss,0,Test,1661,1,A2SBN6V55I5K4I,22,2,o,0
7022,1,GB,skrebg,0,Test,1796,0,A2SBN6V55I5K4I,23,2,e,1
7023,1,worst,tmoz,1,Catch,2008,0,A2SBN6V55I5K4I,24,2,,0
7024,1,BB,zgooshp,1,Test,1608,0,A2SBN6V55I5K4I,25,2,oo,0
7025,0,BG,shtell,1,Test,2013,1,A2SBN6V55I5K4I,26,2,e,1
7026,1,worst,zgdivl,1,Catch,1419,0,A2SBN6V55I5K4I,27,2,,0
7027,0,GG,frim,0,Test,1501,1,A2SBN6V55I5K4I,28,2,i,1
7028,1,worst,lbifth,1,Catch,2397,0,A2SBN6V55I5K4I,29,2,,0
7029,1,GB,stoosf,0,Test,3867,0,A2SBN6V55I5K4I,30,2,oo,1
7030,0,GG,shrin,0,Test,1443,1,A2SBN6V55I5K4I,31,2,i,1
7031,1,BB,thmog,1,Test,2660,0,A2SBN6V55I5K4I,32,2,o,1
7032,1,worst,psatrl,1,Catch,2533,0,A2SBN6V55I5K4I,33,2,,0
7033,1,BB,fnoozg,1,Test,1836,0,A2SBN6V55I5K4I,34,2,oo,0
7034,1,BB,vremg,1,Test,2297,0,A2SBN6V55I5K4I,35,2,e,0
7035,1,GB,brivg,0,Test,2170,0,A2SBN6V55I5K4I,36,2,i,1
7036,0,GG,flad,0,Test,1399,1,A2SBN6V55I5K4I,37,2,a,1
7336,1,best,spellion,1,Catch,6053,0,A2UO3QJZNC2VOE,2,3,,0
7337,1,GB,frid,0,Test,1968,1,A2UO3QJZNC2VOE,3,3,i,1
7338,0,GG,throoz,0,Test,1307,1,A2UO3QJZNC2VOE,4,3,oo,1
7339,0,BG,hrool,1,Test,1151,0,A2UO3QJZNC2VOE,5,3,oo,0
7340,1,worst,wlramr,1,Catch,1003,0,A2UO3QJZNC2VOE,6,3,,0
7341,1,GB,shritp,0,Test,1217,1,A2UO3QJZNC2VOE,7,3,i,1
7342,1,BB,shtefsh,1,Test,4138,0,A2UO3QJZNC2VOE,8,3,e,1
7343,1,best,claffer,1,Catch,1517,0,A2UO3QJZNC2VOE,9,3,,1
7344,1,worst,tmoz,1,Catch,1986,0,A2UO3QJZNC2VOE,10,3,,1
7345,1,best,dellous,1,Catch,1290,1,A2UO3QJZNC2VOE,11,3,,0
7346,1,worst,lbifth,1,Catch,1038,1,A2UO3QJZNC2VOE,12,3,,0
7347,0,GG,splot,0,Test,1604,1,A2UO3QJZNC2VOE,13,3,o,0
7348,0,GG,grun,0,Test,1187,0,A2UO3QJZNC2VOE,14,3,u,1
7349,1,worst,krlisg,1,Catch,2062,1,A2UO3QJZNC2VOE,15,3,,0
