,CodaViolation,Condition,Item,OnsetViolation,PageType,ReactionTime,Response,Subject,TrialNumber,Version,Vowel,YesPosition
3,0,BG,hroom,1,Test,18677,0,A0501481M8MAO691NT54,3,3,oo,0
4,1,BB,shnuthp,1,Test,9300,0,A0501481M8MAO691NT54,4,3,u,0
5,1,worst,wlratlumr,1,Catch,10381,0,A0501481M8MAO691NT54,5,3,,1
6,1,GB,drathf,0,Test,4620,1,A0501481M8MAO691NT54,6,3,a,1
7,1,worst,tmuhriz,1,Catch,5972,0,A0501481M8MAO691NT54,7,3,,1
8,1,GB,gropk,0,Test,29933,1,A0501481M8MAO691NT54,8,3,o,0
9,0,BG,dloo,1,Test,2540,0,A0501481M8MAO691NT54,9,3,oo,0
10,1,BB,vlemth,1,Test,1365,1,A0501481M8MAO691NT54,10,3,e,1
11,1,GB,stithp,0,Test,1764,0,A0501481M8MAO691NT54,11,3,i,1
12,1,best,merly,1,Catch,1820,1,A0501481M8MAO691NT54,12,3,,0
13,0,GG,smul,0,Test,4317,1,A0501481M8MAO691NT54,13,3,u,1
14,1,best,bressic,1,Catch,2069,0,A0501481M8MAO691NT54,14,3,,0
15,1,BB,vlafsh,1,Test,5461,0,A0501481M8MAO691NT54,15,3,a,0
16,1,best,claffer,1,Catch,1814,1,A0501481M8MAO691NT54,16,3,,0
17,1,best,dellous,1,Catch,1172,0,A0501481M8MAO691NT54,17,3,,1
18,1,BB,lrusf,1,Test,23314,0,A0501481M8MAO691NT54,18,3,u,1
19,1,GB,swokp,0,Test,5090,1,A0501481M8MAO691NT54,19,3,o,1
20,1,worst,zgdokpevf,1,Catch,38725,0,A0501481M8MAO691NT54,20,3,,1
21,0,GG,plen,0,Test,1789,1,A0501481M8MAO691NT54,21,3,e,0
22,1,worst,psafzotrl,1,Catch,1254,0,A0501481M8MAO691NT54,22,3,,0
23,1,GB,strishk,0,Test,2254,0,A0501481M8MAO691NT54,23,3,i,0
24,1,best,frotion,1,Catch,2429,1,A0501481M8MAO691NT54,24,3,,0
25,0,GG,kloop,0,Test,4230,0,A0501481M8MAO691NT54,25,3,oo,0
26,1,worst,kflisgwevr,1,Catch,54692,0,A0501481M8MAO691NT54,26,3,,0
27,1,worst,lbafthrizk,1,Catch,1275,0,A0501481M8MAO691NT54,27,3,,0
28,0,BG,shnell,1,Test,1886,1,A0501481M8MAO691NT54,28,3,e,0
29,1,GB,snathf,0,Test,4566,1,A0501481M8MAO691NT54,29,3,a,0
30,0,BG,thlizz,1,Test,2294,0,A0501481M8MAO691NT54,30,3,i,0
31,0,GG,splock,0,Test,47269,0,A0501481M8MAO691NT54,31,3,o,0
32,0,BG,thlom,1,Test,4470,0,A0501481M8MAO691NT54,32,3,o,0
33,0,GG,skreff,0,Test,2677,0,A0501481M8MAO691NT54,33,3,e,0
34,1,BB,zmad,1,Test,1620,0,A0501481M8MAO691NT54,34,3,a,1
35,1,best,spellion,1,Catch,2430,1,A0501481M8MAO691NT54,35,3,,0
36,1,BB,thmepk,1,Test,1615,0,A0501481M8MAO691NT54,36,3,e,0
37,0,BG,lrit,1,Test,1909,1,A0501481M8MAO691NT54,37,3,i,1
38,0,GG,spood,0,Test,1966,1,A0501481M8MAO691NT54,38,3,oo,1
459,1,BB,zmad,1,Test,6675,0,A13WWY2NOP6TC0,3,3,a,1
460,1,BB,thmepk,1,Test,4290,0,A13WWY2NOP6TC0,4,3,e,1
461,1,GB,stithp,0,Test,6545,0,A13WWY2NOP6TC0,5,3,i,0
462,0,GG,kloop,0,Test,4849,1,A13WWY2NOP6TC0,6,3,oo,0
463,1,best,dellous,1,Catch,4247,1,A13WWY2NOP6TC0,7,3,,0
464,0,BG,shnell,1,Test,9103,1,A13WWY2NOP6TC0,8,3,e,0
465,1,GB,snathf,0,Test,3700,0,A13WWY2NOP6TC0,9,3,a,0
466,0,GG,smul,0,Test,6066,1,A13WWY2NOP6TC0,10,3,u,0
467,0,BG,hroom,1,Test,3429,0,A13WWY2NOP6TC0,11,3,oo,1
468,1,GB,swokp,0,Test,2668,0,A13WWY2NOP6TC0,12,3,o,1
469,1,best,spellion,1,Catch,2104,1,A13WWY2NOP6TC0,13,3,,1
470,0,GG,plen,0,Test,2196,1,A13WWY2NOP6TC0,14,3,e,1
471,1,worst,lbafthrizk,1,Catch,2517,0,A13WWY2NOP6TC0,15,3,,0
472,1,worst,kflisgwevr,1,Catch,2335,0,A13WWY2NOP6TC0,16,3,,1
473,1,best,merly,1,Catch,2106,1,A13WWY2NOP6TC0,17,3,,1
474,0,GG,skreff,0,Test,2774,0,A13WWY2NOP6TC0,18,3,e,1
475,1,best,claffer,1,Catch,1522,1,A13WWY2NOP6TC0,19,3,,1
476,1,BB,vlafsh,1,Test,2779,0,A13WWY2NOP6TC0,20,3,a,0
477,1,GB,drathf,0,Test,2337,0,A13WWY2NOP6TC0,21,3,a,1
478,1,BB,shnuthp,1,Test,2021,0,A13WWY2NOP6TC0,22,3,u,0
479,0,GG,spood,0,Test,1621,1,A13WWY2NOP6TC0,23,3,oo,1
480,1,best,frotion,1,Catch,2440,1,A13WWY2NOP6TC0,24,3,,0
481,1,best,bressic,1,Catch,1946,1,A13WWY2NOP6TC0,25,3,,0
482,0,BG,thlizz,1,Test,2621,0,A13WWY2NOP6TC0,26,3,i,1
483,1,worst,wlratlumr,1,Catch,1666,0,A13WWY2NOP6TC0,27,3,,1
484,1,worst,psafzotrl,1,Catch,1792,0,A13WWY2NOP6TC0,28,3,,0
485,1,BB,lrusf,1,Test,2573,0,A13WWY2NOP6TC0,29,3,u,0
486,0,GG,splock,0,Test,1630,1,A13WWY2NOP6TC0,30,3,o,1
487,1,worst,tmuhriz,1,Catch,2057,0,A13WWY2NOP6TC0,31,3,,0
488,1,worst,zgdokpevf,1,Catch,1651,0,A13WWY2NOP6TC0,32,3,,1
489,1,GB,strishk,0,Test,4093,0,A13WWY2NOP6TC0,33,3,i,0
490,0,BG,dloo,1,Test,2218,0,A13WWY2NOP6TC0,34,3,oo,0
491,1,GB,gropk,0,Test,2081,0,A13WWY2NOP6TC0,35,3,o,0
492,0,BG,thlom,1,Test,3256,0,A13WWY2NOP6TC0,36,3,o,0
493,0,BG,lrit,1,Test,1727,1,A13WWY2NOP6TC0,37,3,i,0
494,1,BB,vlemth,1,Test,2164,0,A13WWY2NOP6TC0,38,3,e,1
981,1,worst,tmuhriz,1,Catch,8153,0,A17T6TVHCLK3MH,3,0,,0
982,1,best,bressic,1,Catch,5530,1,A17T6TVHCLK3MH,4,0,,1
983,1,best,frotion,1,Catch,6521,1,A17T6TVHCLK3MH,5,0,,0
984,1,worst,wlratlumr,1,Catch,2345,0,A17T6TVHCLK3MH,6,0,,0
985,1,BB,hrootp,1,Test,2191,0,A17T6TVHCLK3MH,7,0,oo,0
986,1,worst,zgdokpevf,1,Catch,1989,0,A17T6TVHCLK3MH,8,0,,0
987,0,GG,skun,0,Test,2630,1,A17T6TVHCLK3MH,9,0,u,1
988,1,worst,kflisgwevr,1,Catch,2471,0,A17T6TVHCLK3MH,10,0,,0
989,0,GG,brack,0,Test,2148,1,A17T6TVHCLK3MH,11,0,a,1
990,0,BG,shlod,1,Test,2425,0,A17T6TVHCLK3MH,12,0,o,1
991,1,GB,splokp,0,Test,3099,0,A17T6TVHCLK3MH,13,0,o,1
992,1,BB,dloosf,1,Test,3672,0,A17T6TVHCLK3MH,14,0,oo,0
993,0,BG,shpiff,1,Test,3253,0,A17T6TVHCLK3MH,15,0,i,1
994,1,best,spellion,1,Catch,2543,1,A17T6TVHCLK3MH,16,0,,0
995,1,BB,shnethk,1,Test,2493,0,A17T6TVHCLK3MH,17,0,e,0
996,1,BB,thlishp,1,Test,2206,0,A17T6TVHCLK3MH,18,0,i,1
997,1,GB,plemth,0,Test,2385,0,A17T6TVHCLK3MH,19,0,e,1
998,0,GG,trug,0,Test,2477,1,A17T6TVHCLK3MH,20,0,u,0
999,1,BB,lrishk,1,Test,5463,1,A17T6TVHCLK3MH,21,0,i,1
1000,1,best,claffer,1,Catch,2076,1,A17T6TVHCLK3MH,22,0,,1
1001,0,BG,thmass,1,Test,2032,0,A17T6TVHCLK3MH,23,0,a,1
1002,1,best,merly,1,Catch,1730,1,A17T6TVHCLK3MH,24,0,,1
1003,1,worst,lbafthrizk,1,Catch,1889,0,A17T6TVHCLK3MH,25,0,,0
1004,0,GG,sle,0,Test,1678,1,A17T6TVHCLK3MH,26,0,e,0
1005,1,GB,smutp,0,Test,2828,0,A17T6TVHCLK3MH,27,0,u,0
1006,1,GB,kloothk,0,Test,2510,0,A17T6TVHCLK3MH,28,0,oo,0
1007,1,best,dellous,1,Catch,2107,1,A17T6TVHCLK3MH,29,0,,0
1008,1,GB,skrefsh,0,Test,7224,0,A17T6TVHCLK3MH,30,0,e,1
1009,0,GG,fleg,0,Test,2474,1,A17T6TVHCLK3MH,31,0,e,0
1010,1,worst,psafzotrl,1,Catch,2149,0,A17T6TVHCLK3MH,32,0,,0
1011,0,GG,praz,0,Test,1765,1,A17T6TVHCLK3MH,33,0,a,1
1012,0,BG,shtot,1,Test,3033,0,A17T6TVHCLK3MH,34,0,o,1
1013,0,BG,shtip,1,Test,5747,0,A17T6TVHCLK3MH,35,0,i,0
1014,1,GB,spooshp,0,Test,3750,0,A17T6TVHCLK3MH,36,0,oo,1
1015,1,BB,thlod,1,Test,2285,0,A17T6TVHCLK3MH,37,0,o,0
1016,0,BG,thnass,1,Test,1686,0,A17T6TVHCLK3MH,38,0,a,0
1289,1,worst,kflisgwevr,1,Catch,15931,0,A1AXTO77FG14E7,3,2,,0
1290,0,BG,vlack,1,Test,15983,1,A1AXTO77FG14E7,4,2,a,1
1291,1,BB,dlooshp,1,Test,9302,1,A1AXTO77FG14E7,5,2,oo,1
1292,1,BB,hrutp,1,Test,2125,1,A1AXTO77FG14E7,6,2,u,0
1293,1,GB,shrethk,0,Test,2479,1,A1AXTO77FG14E7,7,2,e,1
1294,0,GG,grot,0,Test,2514,1,A1AXTO77FG14E7,8,2,o,0
1295,0,BG,vle,1,Test,2311,0,A1AXTO77FG14E7,9,2,e,0
1296,0,BG,shnun,1,Test,1770,1,A1AXTO77FG14E7,10,2,u,0
1297,1,best,spellion,1,Catch,1471,0,A1AXTO77FG14E7,11,2,,1
1298,0,BG,thmeg,1,Test,2449,1,A1AXTO77FG14E7,12,2,e,0
1299,1,best,claffer,1,Catch,2505,1,A1AXTO77FG14E7,13,2,,1
1300,1,GB,gloosf,0,Test,2222,0,A1AXTO77FG14E7,14,2,oo,1
1301,0,GG,swod,0,Test,2672,1,A1AXTO77FG14E7,15,2,o,1
1302,1,GB,frootp,0,Test,1252,1,A1AXTO77FG14E7,16,2,oo,1
1303,0,BG,lrug,1,Test,2542,1,A1AXTO77FG14E7,17,2,u,0
1304,1,GB,blod,0,Test,1688,0,A1AXTO77FG14E7,18,2,o,1
1305,1,worst,wlratlumr,1,Catch,1793,0,A1AXTO77FG14E7,19,2,,0
1306,1,BB,shlokp,1,Test,2815,1,A1AXTO77FG14E7,20,2,o,1
1307,1,worst,psafzotrl,1,Catch,1972,0,A1AXTO77FG14E7,21,2,,0
1308,0,GG,snass,0,Test,4848,1,A1AXTO77FG14E7,22,2,a,1
1309,1,GB,krishp,0,Test,1791,0,A1AXTO77FG14E7,23,2,i,0
1310,0,GG,stip,0,Test,3815,1,A1AXTO77FG14E7,24,2,i,0
1311,1,best,merly,1,Catch,2168,0,A1AXTO77FG14E7,25,2,,1
1312,1,best,bressic,1,Catch,2528,0,A1AXTO77FG14E7,26,2,,0
1313,1,BB,zmemth,1,Test,1757,0,A1AXTO77FG14E7,27,2,e,1
1314,1,BB,shpefsh,1,Test,1541,0,A1AXTO77FG14E7,28,2,e,0
1315,1,worst,zgdokpevf,1,Catch,1538,0,A1AXTO77FG14E7,29,2,,0
1316,1,BB,thnoothk,1,Test,2238,1,A1AXTO77FG14E7,30,2,oo,1
1317,0,BG,zmaz,1,Test,1498,0,A1AXTO77FG14E7,31,2,a,0
1318,1,worst,lbafthrizk,1,Catch,1449,0,A1AXTO77FG14E7,32,2,,1
1319,1,best,frotion,1,Catch,1632,1,A1AXTO77FG14E7,33,2,,0
1320,1,best,dellous,1,Catch,3268,1,A1AXTO77FG14E7,34,2,,0
1321,0,GG,drass,0,Test,1260,1,A1AXTO77FG14E7,35,2,a,0
1322,1,GB,thrishk,0,Test,1177,1,A1AXTO77FG14E7,36,2,i,0
1323,0,GG,striff,0,Test,1724,1,A1AXTO77FG14E7,37,2,i,1
1324,1,worst,tmuhriz,1,Catch,1342,0,A1AXTO77FG14E7,38,2,,0
1334,1,BB,thlishp,1,Test,21155,1,A1BTABA4W0RU55,3,0,i,0
1335,1,GB,splokp,0,Test,20695,1,A1BTABA4W0RU55,4,0,o,0
1336,0,BG,shlod,1,Test,5659,1,A1BTABA4W0RU55,5,0,o,1
1337,1,worst,lbafthrizk,1,Catch,2419,0,A1BTABA4W0RU55,6,0,,0
1338,1,worst,wlratlumr,1,Catch,2075,0,A1BTABA4W0RU55,7,0,,0
1339,1,GB,skrefsh,0,Test,2499,1,A1BTABA4W0RU55,8,0,e,1
1340,1,worst,psafzotrl,1,Catch,3882,0,A1BTABA4W0RU55,9,0,,1
1341,0,GG,trug,0,Test,1965,1,A1BTABA4W0RU55,10,0,u,1
1342,0,GG,fleg,0,Test,1916,1,A1BTABA4W0RU55,11,0,e,1
1343,0,GG,sle,0,Test,1660,1,A1BTABA4W0RU55,12,0,e,1
1344,0,BG,thnass,1,Test,3060,1,A1BTABA4W0RU55,13,0,a,1
1345,0,GG,brack,0,Test,1332,1,A1BTABA4W0RU55,14,0,a,1
1346,1,worst,kflisgwevr,1,Catch,2372,0,A1BTABA4W0RU55,15,0,,0
1347,0,BG,thmass,1,Test,4740,1,A1BTABA4W0RU55,16,0,a,0
1348,0,GG,skun,0,Test,1795,1,A1BTABA4W0RU55,17,0,u,0
1349,1,BB,dloosf,1,Test,3533,0,A1BTABA4W0RU55,18,0,oo,1
1350,1,BB,thlod,1,Test,5204,0,A1BTABA4W0RU55,19,0,o,0
1351,1,best,frotion,1,Catch,2099,1,A1BTABA4W0RU55,20,0,,1
1352,1,GB,plemth,0,Test,6684,1,A1BTABA4W0RU55,21,0,e,0
1353,1,best,claffer,1,Catch,1676,1,A1BTABA4W0RU55,22,0,,0
1354,1,GB,spooshp,0,Test,4074,1,A1BTABA4W0RU55,23,0,oo,0
1355,1,GB,kloothk,0,Test,2684,1,A1BTABA4W0RU55,24,0,oo,1
1356,1,GB,smutp,0,Test,3268,1,A1BTABA4W0RU55,25,0,u,1
1357,0,BG,shpiff,1,Test,4284,1,A1BTABA4W0RU55,26,0,i,0
1358,0,BG,shtip,1,Test,2675,1,A1BTABA4W0RU55,27,0,i,0
1359,1,BB,shnethk,1,Test,3562,0,A1BTABA4W0RU55,28,0,e,0
1360,1,best,spellion,1,Catch,1451,1,A1BTABA4W0RU55,29,0,,0
1361,1,worst,zgdokpevf,1,Catch,1707,0,A1BTABA4W0RU55,30,0,,0
1362,0,GG,praz,0,Test,1684,1,A1BTABA4W0RU55,31,0,a,1
1363,1,best,merly,1,Catch,1788,1,A1BTABA4W0RU55,32,0,,0
1364,1,BB,hrootp,1,Test,4228,0,A1BTABA4W0RU55,33,0,oo,0
1365,1,worst,tmuhriz,1,Catch,1917,0,A1BTABA4W0RU55,34,0,,1
1366,1,best,bressic,1,Catch,1588,1,A1BTABA4W0RU55,35,0,,0
1367,1,BB,lrishk,1,Test,2620,0,A1BTABA4W0RU55,36,0,i,1
1368,0,BG,shtot,1,Test,3444,1,A1BTABA4W0RU55,37,0,o,0
1369,1,best,dellous,1,Catch,2619,1,A1BTABA4W0RU55,38,0,,0
1468,1,worst,kflisgwevr,1,Catch,8985,0,A1CZK35VFK4EQH,3,2,,1
1469,0,BG,lrug,1,Test,12922,1,A1CZK35VFK4EQH,4,2,u,0
1470,0,GG,stip,0,Test,4196,1,A1CZK35VFK4EQH,5,2,i,1
1471,0,BG,thmeg,1,Test,4521,0,A1CZK35VFK4EQH,6,2,e,0
1472,1,BB,thnoothk,1,Test,5932,0,A1CZK35VFK4EQH,7,2,oo,0
1473,1,best,dellous,1,Catch,2245,1,A1CZK35VFK4EQH,8,2,,1
1474,1,GB,thrishk,0,Test,7101,1,A1CZK35VFK4EQH,9,2,i,1
1475,0,BG,shnun,1,Test,3348,0,A1CZK35VFK4EQH,10,2,u,0
1476,0,GG,grot,0,Test,3587,1,A1CZK35VFK4EQH,11,2,o,1
1477,1,best,claffer,1,Catch,1876,1,A1CZK35VFK4EQH,12,2,,0
1478,1,best,bressic,1,Catch,1734,1,A1CZK35VFK4EQH,13,2,,0
1479,1,best,merly,1,Catch,1413,1,A1CZK35VFK4EQH,14,2,,0
1480,1,worst,wlratlumr,1,Catch,2340,0,A1CZK35VFK4EQH,15,2,,0
1481,1,GB,shrethk,0,Test,3829,1,A1CZK35VFK4EQH,16,2,e,1
1482,1,worst,psafzotrl,1,Catch,1980,0,A1CZK35VFK4EQH,17,2,,1
1483,1,best,spellion,1,Catch,2644,1,A1CZK35VFK4EQH,18,2,,0
1484,1,GB,gloosf,0,Test,6526,0,A1CZK35VFK4EQH,19,2,oo,1
1485,0,GG,swod,0,Test,1725,1,A1CZK35VFK4EQH,20,2,o,1
1486,0,GG,snass,0,Test,1531,1,A1CZK35VFK4EQH,21,2,a,0
1487,0,GG,drass,0,Test,1557,1,A1CZK35VFK4EQH,22,2,a,0
1488,1,GB,blod,0,Test,2012,0,A1CZK35VFK4EQH,23,2,o,1
1489,1,BB,shpefsh,1,Test,2212,0,A1CZK35VFK4EQH,24,2,e,0
1490,1,BB,zmemth,1,Test,1805,0,A1CZK35VFK4EQH,25,2,e,1
1491,1,worst,tmuhriz,1,Catch,1909,0,A1CZK35VFK4EQH,26,2,,1
1492,0,BG,vlack,1,Test,1932,1,A1CZK35VFK4EQH,27,2,a,1
1493,1,GB,krishp,0,Test,4675,0,A1CZK35VFK4EQH,28,2,i,1
1494,1,BB,shlokp,1,Test,2357,0,A1CZK35VFK4EQH,29,2,o,1
1495,1,best,frotion,1,Catch,1781,1,A1CZK35VFK4EQH,30,2,,1
1496,1,BB,hrutp,1,Test,1772,1,A1CZK35VFK4EQH,31,2,u,0
1497,1,worst,lbafthrizk,1,Catch,1981,0,A1CZK35VFK4EQH,32,2,,0
1498,0,GG,striff,0,Test,1725,1,A1CZK35VFK4EQH,33,2,i,0
1499,1,BB,dlooshp,1,Test,1572,0,A1CZK35VFK4EQH,34,2,oo,0
1500,0,BG,vle,1,Test,2492,1,A1CZK35VFK4EQH,35,2,e,1
1501,1,GB,frootp,0,Test,2085,0,A1CZK35VFK4EQH,36,2,oo,0
1502,1,worst,zgdokpevf,1,Catch,1530,0,A1CZK35VFK4EQH,37,2,,0
1503,0,BG,zmaz,1,Test,1787,0,A1CZK35VFK4EQH,38,2,a,1
1623,1,best,merly,1,Catch,9523,1,A1DY2HA6GUYR2T,3,1,,0
1624,1,GB,slemth,0,Test,8704,1,A1DY2HA6GUYR2T,4,1,e,1
1625,1,BB,shlokp,1,Test,3215,0,A1DY2HA6GUYR2T,5,1,o,0
1626,0,BG,shpeff,1,Test,2308,0,A1DY2HA6GUYR2T,6,1,e,0
1627,1,GB,flepk,0,Test,2976,1,A1DY2HA6GUYR2T,7,1,e,0
1628,1,GB,skuthp,0,Test,2456,0,A1DY2HA6GUYR2T,8,1,u,1
1629,1,BB,shpishk,1,Test,1925,0,A1DY2HA6GUYR2T,9,1,i,0
1630,1,BB,shtithp,1,Test,3117,0,A1DY2HA6GUYR2T,10,1,i,1
1631,1,best,dellous,1,Catch,1700,1,A1DY2HA6GUYR2T,11,1,,1
1632,1,best,spellion,1,Catch,1534,1,A1DY2HA6GUYR2T,12,1,,1
1633,0,BG,zmen,1,Test,3300,0,A1DY2HA6GUYR2T,13,1,e,0
1634,0,BG,hrul,1,Test,2189,0,A1DY2HA6GUYR2T,14,1,u,0
1635,1,GB,brafsh,0,Test,5013,1,A1DY2HA6GUYR2T,15,1,a,1
1636,1,worst,kflisgwevr,1,Catch,2971,0,A1DY2HA6GUYR2T,16,1,,1
1637,1,GB,prad,0,Test,2958,1,A1DY2HA6GUYR2T,17,1,a,1
1638,0,BG,dlood,1,Test,1813,1,A1DY2HA6GUYR2T,18,1,oo,0
1639,1,worst,psafzotrl,1,Catch,2468,0,A1DY2HA6GUYR2T,19,1,,1
1640,0,GG,thrit,0,Test,1908,0,A1DY2HA6GUYR2T,20,1,i,1
1641,1,worst,zgdokpevf,1,Catch,1678,0,A1DY2HA6GUYR2T,21,1,,1
1642,0,BG,shlock,1,Test,1645,1,A1DY2HA6GUYR2T,22,1,o,0
1643,1,worst,lbafthrizk,1,Catch,1725,0,A1DY2HA6GUYR2T,23,1,,0
1644,0,GG,gloo,0,Test,1525,1,A1DY2HA6GUYR2T,24,1,oo,1
1645,1,best,frotion,1,Catch,1797,1,A1DY2HA6GUYR2T,25,1,,0
1646,0,GG,shrell,0,Test,1399,1,A1DY2HA6GUYR2T,26,1,e,0
1647,1,BB,thnathf,1,Test,1477,0,A1DY2HA6GUYR2T,27,1,a,0
1648,1,BB,shtopk,1,Test,2655,0,A1DY2HA6GUYR2T,28,1,o,0
1649,1,worst,tmuhriz,1,Catch,1823,0,A1DY2HA6GUYR2T,29,1,,0
1650,0,GG,froom,0,Test,1267,1,A1DY2HA6GUYR2T,30,1,oo,1
1651,1,worst,wlratlumr,1,Catch,2276,0,A1DY2HA6GUYR2T,31,1,,0
1652,1,GB,trusf,0,Test,2077,1,A1DY2HA6GUYR2T,32,1,u,1
1653,1,BB,thmathf,1,Test,2614,0,A1DY2HA6GUYR2T,33,1,a,0
1654,1,best,bressic,1,Catch,1325,1,A1DY2HA6GUYR2T,34,1,,0
1655,0,BG,thnoop,1,Test,2405,1,A1DY2HA6GUYR2T,35,1,oo,1
1656,1,best,claffer,1,Catch,2132,1,A1DY2HA6GUYR2T,36,1,,0
1657,0,GG,blom,0,Test,1790,1,A1DY2HA6GUYR2T,37,1,o,0
1658,0,GG,krizz,0,Test,1981,1,A1DY2HA6GUYR2T,38,1,i,1
1705,0,BG,shlod,1,Test,7843,0,A1EWD6HF7R2KC1,3,0,o,1
1706,1,GB,kloothk,0,Test,2276,0,A1EWD6HF7R2KC1,4,0,oo,1
1707,0,GG,trug,0,Test,3087,1,A1EWD6HF7R2KC1,5,0,u,0
1708,1,GB,smutp,0,Test,2011,0,A1EWD6HF7R2KC1,6,0,u,1
1709,1,worst,wlratlumr,1,Catch,1931,0,A1EWD6HF7R2KC1,7,0,,0
1710,1,BB,thlishp,1,Test,2634,0,A1EWD6HF7R2KC1,8,0,i,1
1711,1,GB,plemth,0,Test,1442,0,A1EWD6HF7R2KC1,9,0,e,1
1712,1,best,bressic,1,Catch,2019,0,A1EWD6HF7R2KC1,10,0,,0
1713,0,GG,fleg,0,Test,1388074,1,A1EWD6HF7R2KC1,11,0,e,0
1714,1,BB,lrishk,1,Test,2729,0,A1EWD6HF7R2KC1,12,0,i,1
1715,1,best,spellion,1,Catch,3243,1,A1EWD6HF7R2KC1,13,0,,1
1716,1,best,dellous,1,Catch,2536,1,A1EWD6HF7R2KC1,14,0,,1
1717,0,BG,shtot,1,Test,1507,0,A1EWD6HF7R2KC1,15,0,o,1
1718,1,GB,splokp,0,Test,2666,0,A1EWD6HF7R2KC1,16,0,o,1
1719,0,BG,shtip,1,Test,1739,1,A1EWD6HF7R2KC1,17,0,i,1
1720,1,BB,dloosf,1,Test,3185,1,A1EWD6HF7R2KC1,18,0,oo,0
1721,0,GG,skun,0,Test,1668,1,A1EWD6HF7R2KC1,19,0,u,0
1722,1,worst,kflisgwevr,1,Catch,2195,0,A1EWD6HF7R2KC1,20,0,,1
1723,1,best,claffer,1,Catch,2324,1,A1EWD6HF7R2KC1,21,0,,1
1724,1,BB,hrootp,1,Test,1404,0,A1EWD6HF7R2KC1,22,0,oo,1
1725,1,GB,spooshp,0,Test,3683,0,A1EWD6HF7R2KC1,23,0,oo,1
1726,0,BG,shpiff,1,Test,2162,0,A1EWD6HF7R2KC1,24,0,i,1
1727,0,GG,brack,0,Test,1294,1,A1EWD6HF7R2KC1,25,0,a,1
1728,1,worst,lbafthrizk,1,Catch,1191,0,A1EWD6HF7R2KC1,26,0,,1
1729,1,worst,psafzotrl,1,Catch,1603,0,A1EWD6HF7R2KC1,27,0,,0
1730,1,best,merly,1,Catch,2453,1,A1EWD6HF7R2KC1,28,0,,1
1731,0,BG,thnass,1,Test,1275,0,A1EWD6HF7R2KC1,29,0,a,1
1732,1,best,frotion,1,Catch,1621,1,A1EWD6HF7R2KC1,30,0,,0
1733,1,BB,thlod,1,Test,1259,0,A1EWD6HF7R2KC1,31,0,o,0
1734,1,BB,shnethk,1,Test,2687,0,A1EWD6HF7R2KC1,32,0,e,0
1735,1,worst,zgdokpevf,1,Catch,1051,0,A1EWD6HF7R2KC1,33,0,,0
1736,1,GB,skrefsh,0,Test,1768,1,A1EWD6HF7R2KC1,34,0,e,1
1737,0,GG,sle,0,Test,1395,1,A1EWD6HF7R2KC1,35,0,e,1
1738,1,worst,tmuhriz,1,Catch,1148,0,A1EWD6HF7R2KC1,36,0,,1
1739,0,BG,thmass,1,Test,3331,0,A1EWD6HF7R2KC1,37,0,a,1
1740,0,GG,praz,0,Test,1484,1,A1EWD6HF7R2KC1,38,0,a,0
1882,0,BG,shtot,1,Test,4615,0,A1G93QD73GJ4R7,3,0,o,1
1883,1,best,spellion,1,Catch,1878,1,A1G93QD73GJ4R7,4,0,,0
1884,1,best,bressic,1,Catch,1722,1,A1G93QD73GJ4R7,5,0,,1
1885,1,worst,lbafthrizk,1,Catch,1167,0,A1G93QD73GJ4R7,6,0,,1
1886,1,BB,lrishk,1,Test,1505,1,A1G93QD73GJ4R7,7,0,i,0
1887,0,GG,trug,0,Test,1702,1,A1G93QD73GJ4R7,8,0,u,1
1888,0,BG,shpiff,1,Test,2384,0,A1G93QD73GJ4R7,9,0,i,0
1889,1,best,merly,1,Catch,2102,1,A1G93QD73GJ4R7,10,0,,1
1890,1,worst,psafzotrl,1,Catch,1676,0,A1G93QD73GJ4R7,11,0,,0
1891,1,worst,kflisgwevr,1,Catch,1483,0,A1G93QD73GJ4R7,12,0,,1
1892,0,BG,shtip,1,Test,1658,0,A1G93QD73GJ4R7,13,0,i,0
1893,1,best,claffer,1,Catch,1419,1,A1G93QD73GJ4R7,14,0,,1
1894,1,worst,tmuhriz,1,Catch,2062,0,A1G93QD73GJ4R7,15,0,,0
1895,1,best,frotion,1,Catch,1995,1,A1G93QD73GJ4R7,16,0,,1
1896,0,BG,shlod,1,Test,2754,0,A1G93QD73GJ4R7,17,0,o,0
1897,0,GG,praz,0,Test,2273,0,A1G93QD73GJ4R7,18,0,a,1
1898,1,BB,thlod,1,Test,1814,0,A1G93QD73GJ4R7,19,0,o,0
1899,0,BG,thnass,1,Test,1824,1,A1G93QD73GJ4R7,20,0,a,1
1900,1,GB,spooshp,0,Test,2345,0,A1G93QD73GJ4R7,21,0,oo,1
1901,1,BB,shnethk,1,Test,1486,0,A1G93QD73GJ4R7,22,0,e,0
1902,1,BB,hrootp,1,Test,1934,0,A1G93QD73GJ4R7,23,0,oo,1
1903,1,GB,kloothk,0,Test,1700,0,A1G93QD73GJ4R7,24,0,oo,0
1904,0,GG,skun,0,Test,3896,1,A1G93QD73GJ4R7,25,0,u,0
1905,0,GG,sle,0,Test,1252,1,A1G93QD73GJ4R7,26,0,e,0
1906,1,worst,zgdokpevf,1,Catch,1051,1,A1G93QD73GJ4R7,27,0,,1
1907,0,GG,fleg,0,Test,2127,0,A1G93QD73GJ4R7,28,0,e,1
1908,1,BB,thlishp,1,Test,1580,0,A1G93QD73GJ4R7,29,0,i,0
1909,1,GB,plemth,0,Test,1560,0,A1G93QD73GJ4R7,30,0,e,0
1910,1,BB,dloosf,1,Test,1881,0,A1G93QD73GJ4R7,31,0,oo,0
1911,1,GB,smutp,0,Test,4461,0,A1G93QD73GJ4R7,32,0,u,1
1912,0,GG,brack,0,Test,1658,1,A1G93QD73GJ4R7,33,0,a,0
1913,1,GB,splokp,0,Test,1437,0,A1G93QD73GJ4R7,34,0,o,1
1914,0,BG,thmass,1,Test,1871,1,A1G93QD73GJ4R7,35,0,a,1
1915,1,GB,skrefsh,0,Test,1744,1,A1G93QD73GJ4R7,36,0,e,1
1916,1,best,dellous,1,Catch,1397,1,A1G93QD73GJ4R7,37,0,,1
1917,1,worst,wlratlumr,1,Catch,1442,1,A1G93QD73GJ4R7,38,0,,0
2045,0,BG,dloo,1,Test,6598,0,A1HN4550TIXQBZ,3,3,oo,0
2046,0,BG,thlom,1,Test,2264,0,A1HN4550TIXQBZ,4,3,o,0
2047,1,worst,lbafthrizk,1,Catch,1550,0,A1HN4550TIXQBZ,5,3,,0
2048,0,GG,kloop,0,Test,1726,1,A1HN4550TIXQBZ,6,3,oo,1
2049,1,worst,tmuhriz,1,Catch,5372,0,A1HN4550TIXQBZ,7,3,,0
2050,1,best,claffer,1,Catch,3282,1,A1HN4550TIXQBZ,8,3,,0
2051,1,worst,wlratlumr,1,Catch,2269,0,A1HN4550TIXQBZ,9,3,,0
2052,1,BB,lrusf,1,Test,2240,0,A1HN4550TIXQBZ,10,3,u,1
2053,1,BB,vlafsh,1,Test,2698,0,A1HN4550TIXQBZ,11,3,a,0
2054,1,GB,swokp,0,Test,2771,0,A1HN4550TIXQBZ,12,3,o,0
2055,1,worst,kflisgwevr,1,Catch,1789,0,A1HN4550TIXQBZ,13,3,,0
2056,1,GB,snathf,0,Test,1557,0,A1HN4550TIXQBZ,14,3,a,0
2057,1,best,spellion,1,Catch,2300,1,A1HN4550TIXQBZ,15,3,,0
2058,1,GB,drathf,0,Test,1708,0,A1HN4550TIXQBZ,16,3,a,1
2059,1,GB,gropk,0,Test,2239,0,A1HN4550TIXQBZ,17,3,o,0
2060,1,GB,stithp,0,Test,1469,0,A1HN4550TIXQBZ,18,3,i,1
2061,0,GG,smul,0,Test,2760,1,A1HN4550TIXQBZ,19,3,u,0
2062,1,best,dellous,1,Catch,1949,1,A1HN4550TIXQBZ,20,3,,1
2063,0,BG,lrit,1,Test,1828,1,A1HN4550TIXQBZ,21,3,i,1
2064,1,BB,vlemth,1,Test,1265,0,A1HN4550TIXQBZ,22,3,e,1
2065,1,BB,thmepk,1,Test,1377,0,A1HN4550TIXQBZ,23,3,e,1
2066,0,BG,hroom,1,Test,2283,0,A1HN4550TIXQBZ,24,3,oo,0
2067,1,BB,zmad,1,Test,1647,0,A1HN4550TIXQBZ,25,3,a,0
2068,1,best,frotion,1,Catch,1363,1,A1HN4550TIXQBZ,26,3,,0
2069,1,worst,psafzotrl,1,Catch,1314,0,A1HN4550TIXQBZ,27,3,,0
2070,1,GB,strishk,0,Test,1580,0,A1HN4550TIXQBZ,28,3,i,1
2071,1,worst,zgdokpevf,1,Catch,1218,0,A1HN4550TIXQBZ,29,3,,0
2072,1,BB,shnuthp,1,Test,1367,0,A1HN4550TIXQBZ,30,3,u,0
2073,0,BG,thlizz,1,Test,1342,0,A1HN4550TIXQBZ,31,3,i,0
2074,0,GG,spood,0,Test,1435,1,A1HN4550TIXQBZ,32,3,oo,1
2075,0,GG,splock,0,Test,1353,1,A1HN4550TIXQBZ,33,3,o,0
2076,0,BG,shnell,1,Test,3606,0,A1HN4550TIXQBZ,34,3,e,1
2077,1,best,merly,1,Catch,1613,1,A1HN4550TIXQBZ,35,3,,0
2078,0,GG,plen,0,Test,1242,1,A1HN4550TIXQBZ,36,3,e,1
2079,0,GG,skreff,0,Test,1659,0,A1HN4550TIXQBZ,37,3,e,0
2080,1,best,bressic,1,Catch,2052,1,A1HN4550TIXQBZ,38,3,,0
2170,1,worst,wlratlumr,1,Catch,4989,0,A1IS0218RVG60K,3,3,,0
2171,0,GG,kloop,0,Test,922,0,A1IS0218RVG60K,4,3,oo,1
2172,0,GG,spood,0,Test,1367,1,A1IS0218RVG60K,5,3,oo,1
2173,1,GB,strishk,0,Test,1252,1,A1IS0218RVG60K,6,3,i,0
2174,0,BG,thlom,1,Test,907,1,A1IS0218RVG60K,7,3,o,0
2175,1,best,dellous,1,Catch,854,1,A1IS0218RVG60K,8,3,,0
2176,0,BG,lrit,1,Test,1427,0,A1IS0218RVG60K,9,3,i,0
2177,0,GG,skreff,0,Test,1181,1,A1IS0218RVG60K,10,3,e,1
2178,1,BB,thmepk,1,Test,996,0,A1IS0218RVG60K,11,3,e,1
2179,1,GB,drathf,0,Test,1200,1,A1IS0218RVG60K,12,3,a,0
2180,1,GB,stithp,0,Test,1362,0,A1IS0218RVG60K,13,3,i,1
2181,1,worst,tmuhriz,1,Catch,1846,0,A1IS0218RVG60K,14,3,,1
2182,0,BG,dloo,1,Test,1462,1,A1IS0218RVG60K,15,3,oo,0
2183,1,best,spellion,1,Catch,1575,1,A1IS0218RVG60K,16,3,,1
2184,1,best,merly,1,Catch,875,0,A1IS0218RVG60K,17,3,,1
2185,0,GG,smul,0,Test,762,1,A1IS0218RVG60K,18,3,u,1
2186,1,GB,swokp,0,Test,583,1,A1IS0218RVG60K,19,3,o,0
2187,1,GB,gropk,0,Test,2129,0,A1IS0218RVG60K,20,3,o,0
2188,0,BG,hroom,1,Test,650,1,A1IS0218RVG60K,21,3,oo,0
2189,1,best,claffer,1,Catch,1761,1,A1IS0218RVG60K,22,3,,0
2190,1,worst,kflisgwevr,1,Catch,1431,0,A1IS0218RVG60K,23,3,,1
2191,1,BB,vlafsh,1,Test,961,0,A1IS0218RVG60K,24,3,a,1
2192,1,best,frotion,1,Catch,743,1,A1IS0218RVG60K,25,3,,1
2193,1,BB,lrusf,1,Test,1965,0,A1IS0218RVG60K,26,3,u,0
2194,0,BG,thlizz,1,Test,761,0,A1IS0218RVG60K,27,3,i,1
2195,0,BG,shnell,1,Test,1175,0,A1IS0218RVG60K,28,3,e,1
2196,1,BB,zmad,1,Test,932,1,A1IS0218RVG60K,29,3,a,1
2197,0,GG,plen,0,Test,668,1,A1IS0218RVG60K,30,3,e,0
2198,1,BB,shnuthp,1,Test,834,1,A1IS0218RVG60K,31,3,u,1
2199,1,worst,lbafthrizk,1,Catch,1209,0,A1IS0218RVG60K,32,3,,0
2200,1,worst,zgdokpevf,1,Catch,1395,0,A1IS0218RVG60K,33,3,,0
2201,1,BB,vlemth,1,Test,1422,1,A1IS0218RVG60K,34,3,e,0
2202,1,GB,snathf,0,Test,1445,1,A1IS0218RVG60K,35,3,a,1
2203,1,best,bressic,1,Catch,1061,1,A1IS0218RVG60K,36,3,,0
2204,0,GG,splock,0,Test,1099,1,A1IS0218RVG60K,37,3,o,0
2205,1,worst,psafzotrl,1,Catch,1262,1,A1IS0218RVG60K,38,3,,1
2296,1,BB,zmemth,1,Test,9080,0,A1JE8JMKJBVHNH,3,2,e,1
2297,0,BG,vlack,1,Test,10649,1,A1JE8JMKJBVHNH,4,2,a,1
2298,0,GG,swod,0,Test,1645,1,A1JE8JMKJBVHNH,5,2,o,1
2299,1,BB,shlokp,1,Test,2701,0,A1JE8JMKJBVHNH,6,2,o,1
2300,1,GB,gloosf,0,Test,3565,0,A1JE8JMKJBVHNH,7,2,oo,0
2301,0,BG,thmeg,1,Test,5933,0,A1JE8JMKJBVHNH,8,2,e,1
2302,1,worst,kflisgwevr,1,Catch,2621,0,A1JE8JMKJBVHNH,9,2,,0
2303,1,BB,hrutp,1,Test,3278,0,A1JE8JMKJBVHNH,10,2,u,0
2304,1,BB,dlooshp,1,Test,2589,0,A1JE8JMKJBVHNH,11,2,oo,0
2305,0,GG,striff,0,Test,2254,1,A1JE8JMKJBVHNH,12,2,i,1
2306,1,best,bressic,1,Catch,2238,1,A1JE8JMKJBVHNH,13,2,,0
2307,0,BG,vle,1,Test,2941,0,A1JE8JMKJBVHNH,14,2,e,1
2308,1,worst,zgdokpevf,1,Catch,1661,0,A1JE8JMKJBVHNH,15,2,,1
2309,0,BG,zmaz,1,Test,5341,1,A1JE8JMKJBVHNH,16,2,a,1
2310,1,GB,shrethk,0,Test,2349,0,A1JE8JMKJBVHNH,17,2,e,0
2311,1,worst,psafzotrl,1,Catch,3340,0,A1JE8JMKJBVHNH,18,2,,0
2312,0,GG,snass,0,Test,1599,1,A1JE8JMKJBVHNH,19,2,a,0
2313,1,best,spellion,1,Catch,1885,1,A1JE8JMKJBVHNH,20,2,,0
2314,1,BB,shpefsh,1,Test,3613,0,A1JE8JMKJBVHNH,21,2,e,1
2315,1,worst,wlratlumr,1,Catch,1822,0,A1JE8JMKJBVHNH,22,2,,1
2316,0,GG,grot,0,Test,2124,1,A1JE8JMKJBVHNH,23,2,o,0
2317,0,GG,drass,0,Test,2190,1,A1JE8JMKJBVHNH,24,2,a,1
2318,1,GB,blod,0,Test,2318,0,A1JE8JMKJBVHNH,25,2,o,0
2319,1,GB,krishp,0,Test,2238,0,A1JE8JMKJBVHNH,26,2,i,0
2320,1,BB,thnoothk,1,Test,2318,0,A1JE8JMKJBVHNH,27,2,oo,0
2321,1,GB,thrishk,0,Test,2813,0,A1JE8JMKJBVHNH,28,2,i,0
2322,1,best,dellous,1,Catch,1917,1,A1JE8JMKJBVHNH,29,2,,1
2323,1,worst,lbafthrizk,1,Catch,1854,0,A1JE8JMKJBVHNH,30,2,,0
2324,1,best,merly,1,Catch,1758,1,A1JE8JMKJBVHNH,31,2,,0
2325,1,best,frotion,1,Catch,1966,1,A1JE8JMKJBVHNH,32,2,,1
2326,1,GB,frootp,0,Test,1966,0,A1JE8JMKJBVHNH,33,2,oo,1
2327,1,worst,tmuhriz,1,Catch,1614,0,A1JE8JMKJBVHNH,34,2,,1
2328,0,BG,shnun,1,Test,2366,0,A1JE8JMKJBVHNH,35,2,u,0
2329,0,GG,stip,0,Test,1630,1,A1JE8JMKJBVHNH,36,2,i,1
2330,1,best,claffer,1,Catch,1678,1,A1JE8JMKJBVHNH,37,2,,0
2331,0,BG,lrug,1,Test,2525,0,A1JE8JMKJBVHNH,38,2,u,1
2502,0,GG,stip,0,Test,12750,1,A1LI3JQS2VBOXC,3,2,i,0
2503,0,GG,drass,0,Test,1514,1,A1LI3JQS2VBOXC,4,2,a,0
2504,1,BB,shlokp,1,Test,1333,0,A1LI3JQS2VBOXC,5,2,o,0
2505,0,GG,grot,0,Test,5407,1,A1LI3JQS2VBOXC,6,2,o,1
2506,1,worst,psafzotrl,1,Catch,1948,0,A1LI3JQS2VBOXC,7,2,,1
2507,1,BB,hrutp,1,Test,1566,0,A1LI3JQS2VBOXC,8,2,u,1
2508,0,BG,zmaz,1,Test,1254,0,A1LI3JQS2VBOXC,9,2,a,1
2509,1,GB,gloosf,0,Test,3203,0,A1LI3JQS2VBOXC,10,2,oo,1
2510,0,BG,thmeg,1,Test,2057,0,A1LI3JQS2VBOXC,11,2,e,1
2511,1,GB,krishp,0,Test,1324,0,A1LI3JQS2VBOXC,12,2,i,1
2512,0,BG,lrug,1,Test,2040,0,A1LI3JQS2VBOXC,13,2,u,1
2513,0,GG,striff,0,Test,1989,1,A1LI3JQS2VBOXC,14,2,i,0
2514,1,worst,zgdokpevf,1,Catch,1486,0,A1LI3JQS2VBOXC,15,2,,1
2515,1,worst,tmuhriz,1,Catch,1342,0,A1LI3JQS2VBOXC,16,2,,1
2516,1,GB,blod,0,Test,2374,0,A1LI3JQS2VBOXC,17,2,o,0
2517,1,worst,kflisgwevr,1,Catch,1510,0,A1LI3JQS2VBOXC,18,2,,1
2518,1,BB,thnoothk,1,Test,1310,0,A1LI3JQS2VBOXC,19,2,oo,1
2519,1,best,spellion,1,Catch,1759,1,A1LI3JQS2VBOXC,20,2,,1
2520,1,GB,shrethk,0,Test,1253,0,A1LI3JQS2VBOXC,21,2,e,1
2521,1,GB,thrishk,0,Test,1367,0,A1LI3JQS2VBOXC,22,2,i,1
2522,0,BG,vlack,1,Test,1902,1,A1LI3JQS2VBOXC,23,2,a,1
2523,1,worst,lbafthrizk,1,Catch,1758,0,A1LI3JQS2VBOXC,24,2,,0
2524,1,BB,zmemth,1,Test,1524,0,A1LI3JQS2VBOXC,25,2,e,0
2525,0,BG,vle,1,Test,2232,1,A1LI3JQS2VBOXC,26,2,e,1
2526,1,best,frotion,1,Catch,1510,1,A1LI3JQS2VBOXC,27,2,,1
2527,1,best,claffer,1,Catch,1118,1,A1LI3JQS2VBOXC,28,2,,1
2528,1,best,dellous,1,Catch,2030,1,A1LI3JQS2VBOXC,29,2,,1
2529,1,best,merly,1,Catch,1390,1,A1LI3JQS2VBOXC,30,2,,1
2530,1,BB,shpefsh,1,Test,1558,0,A1LI3JQS2VBOXC,31,2,e,0
2531,1,worst,wlratlumr,1,Catch,1145,0,A1LI3JQS2VBOXC,32,2,,0
2532,1,best,bressic,1,Catch,1803,1,A1LI3JQS2VBOXC,33,2,,1
2533,0,GG,snass,0,Test,1526,1,A1LI3JQS2VBOXC,34,2,a,0
2534,0,BG,shnun,1,Test,1510,0,A1LI3JQS2VBOXC,35,2,u,1
2535,0,GG,swod,0,Test,2014,1,A1LI3JQS2VBOXC,36,2,o,0
2536,1,GB,frootp,0,Test,1526,0,A1LI3JQS2VBOXC,37,2,oo,1
2537,1,BB,dlooshp,1,Test,1206,0,A1LI3JQS2VBOXC,38,2,oo,1
2547,0,GG,snass,0,Test,5037,1,A1M1TSMJB12177,3,2,a,0
2548,1,GB,blod,0,Test,4183,0,A1M1TSMJB12177,4,2,o,1
2549,1,worst,tmuhriz,1,Catch,2157,0,A1M1TSMJB12177,5,2,,1
2550,1,best,bressic,1,Catch,2612,1,A1M1TSMJB12177,6,2,,1
2551,1,BB,zmemth,1,Test,4019,0,A1M1TSMJB12177,7,2,e,1
2552,1,BB,dlooshp,1,Test,3142,0,A1M1TSMJB12177,8,2,oo,1
2553,0,BG,vlack,1,Test,3611,1,A1M1TSMJB12177,9,2,a,1
2554,1,worst,lbafthrizk,1,Catch,3478,0,A1M1TSMJB12177,10,2,,1
2555,1,GB,krishp,0,Test,2469,0,A1M1TSMJB12177,11,2,i,1
2556,1,GB,frootp,0,Test,2494,0,A1M1TSMJB12177,12,2,oo,1
2557,1,GB,gloosf,0,Test,3580,0,A1M1TSMJB12177,13,2,oo,0
2558,0,BG,zmaz,1,Test,3303,0,A1M1TSMJB12177,14,2,a,0
2559,0,GG,grot,0,Test,2763,1,A1M1TSMJB12177,15,2,o,0
2560,1,best,claffer,1,Catch,2882,1,A1M1TSMJB12177,16,2,,1
2561,1,GB,shrethk,0,Test,2210,0,A1M1TSMJB12177,17,2,e,1
2562,0,BG,lrug,1,Test,2579,0,A1M1TSMJB12177,18,2,u,1
2563,0,BG,shnun,1,Test,2852,0,A1M1TSMJB12177,19,2,u,1
2564,1,worst,wlratlumr,1,Catch,2095,0,A1M1TSMJB12177,20,2,,1
2565,0,GG,stip,0,Test,2736,1,A1M1TSMJB12177,21,2,i,1
2566,0,GG,drass,0,Test,2296,1,A1M1TSMJB12177,22,2,a,1
2567,0,GG,swod,0,Test,3004,1,A1M1TSMJB12177,23,2,o,0
2568,0,GG,striff,0,Test,2236,1,A1M1TSMJB12177,24,2,i,0
2569,0,BG,vle,1,Test,3515,1,A1M1TSMJB12177,25,2,e,0
2570,1,best,frotion,1,Catch,3078,1,A1M1TSMJB12177,26,2,,0
2571,1,BB,shlokp,1,Test,2610,0,A1M1TSMJB12177,27,2,o,0
2572,1,BB,shpefsh,1,Test,2310,0,A1M1TSMJB12177,28,2,e,1
2573,1,best,spellion,1,Catch,2615,1,A1M1TSMJB12177,29,2,,0
2574,1,worst,zgdokpevf,1,Catch,2938,0,A1M1TSMJB12177,30,2,,1
2575,1,GB,thrishk,0,Test,2885,0,A1M1TSMJB12177,31,2,i,1
2576,1,BB,thnoothk,1,Test,2277,0,A1M1TSMJB12177,32,2,oo,1
2577,0,BG,thmeg,1,Test,3816,1,A1M1TSMJB12177,33,2,e,0
2578,1,best,dellous,1,Catch,2137,1,A1M1TSMJB12177,34,2,,0
2579,1,worst,kflisgwevr,1,Catch,2311,0,A1M1TSMJB12177,35,2,,1
2580,1,worst,psafzotrl,1,Catch,1958,0,A1M1TSMJB12177,36,2,,1
2581,1,best,merly,1,Catch,2695,1,A1M1TSMJB12177,37,2,,1
2582,1,BB,hrutp,1,Test,2658,0,A1M1TSMJB12177,38,2,u,0
2710,1,best,claffer,1,Catch,11930,0,A1NCAF2Y02LNOM,3,1,,1
2711,0,BG,dlood,1,Test,3516,1,A1NCAF2Y02LNOM,4,1,oo,0
2712,0,GG,blom,0,Test,2300,0,A1NCAF2Y02LNOM,5,1,o,1
2713,0,GG,thrit,0,Test,1772,1,A1NCAF2Y02LNOM,6,1,i,0
2714,1,best,dellous,1,Catch,1923,1,A1NCAF2Y02LNOM,7,1,,0
2715,1,GB,trusf,0,Test,1520,0,A1NCAF2Y02LNOM,8,1,u,1
2716,1,BB,shtithp,1,Test,1393,0,A1NCAF2Y02LNOM,9,1,i,1
2717,1,worst,wlratlumr,1,Catch,1334,1,A1NCAF2Y02LNOM,10,1,,0
2718,1,best,merly,1,Catch,3065,1,A1NCAF2Y02LNOM,11,1,,1
2719,1,GB,brafsh,0,Test,3459,0,A1NCAF2Y02LNOM,12,1,a,1
2720,1,best,spellion,1,Catch,2357,1,A1NCAF2Y02LNOM,13,1,,1
2721,1,BB,thmathf,1,Test,2621,0,A1NCAF2Y02LNOM,14,1,a,1
2722,1,best,frotion,1,Catch,5188,1,A1NCAF2Y02LNOM,15,1,,0
2723,0,GG,froom,0,Test,1300,1,A1NCAF2Y02LNOM,16,1,oo,0
2724,1,worst,lbafthrizk,1,Catch,4412,0,A1NCAF2Y02LNOM,17,1,,1
2725,1,GB,flepk,0,Test,1168,1,A1NCAF2Y02LNOM,18,1,e,0
2726,0,BG,thnoop,1,Test,3632,0,A1NCAF2Y02LNOM,19,1,oo,1
2727,1,GB,prad,0,Test,1257,1,A1NCAF2Y02LNOM,20,1,a,0
2728,1,BB,shpishk,1,Test,1247,1,A1NCAF2Y02LNOM,21,1,i,0
2729,1,BB,thnathf,1,Test,1097,1,A1NCAF2Y02LNOM,22,1,a,0
2730,1,best,bressic,1,Catch,2256,1,A1NCAF2Y02LNOM,23,1,,1
2731,1,BB,shtopk,1,Test,1568,1,A1NCAF2Y02LNOM,24,1,o,0
2732,1,worst,psafzotrl,1,Catch,1356,1,A1NCAF2Y02LNOM,25,1,,0
2733,1,BB,shlokp,1,Test,1468,1,A1NCAF2Y02LNOM,26,1,o,0
2734,1,GB,slemth,0,Test,2132,1,A1NCAF2Y02LNOM,27,1,e,0
2735,0,BG,zmen,1,Test,1564,0,A1NCAF2Y02LNOM,28,1,e,1
2736,0,BG,shlock,1,Test,1343,1,A1NCAF2Y02LNOM,29,1,o,0
2737,0,BG,shpeff,1,Test,1707,0,A1NCAF2Y02LNOM,30,1,e,1
2738,1,GB,skuthp,0,Test,1560,0,A1NCAF2Y02LNOM,31,1,u,1
2739,0,GG,krizz,0,Test,1738,0,A1NCAF2Y02LNOM,32,1,i,1
2740,1,worst,tmuhriz,1,Catch,1560,1,A1NCAF2Y02LNOM,33,1,,0
2741,1,worst,kflisgwevr,1,Catch,1255,1,A1NCAF2Y02LNOM,34,1,,0
2742,0,BG,hrul,1,Test,1483,1,A1NCAF2Y02LNOM,35,1,u,0
2743,0,GG,gloo,0,Test,8405,0,A1NCAF2Y02LNOM,36,1,oo,0
2744,1,worst,zgdokpevf,1,Catch,4520,0,A1NCAF2Y02LNOM,37,1,,1
2745,0,GG,shrell,0,Test,3258,1,A1NCAF2Y02LNOM,38,1,e,1
2792,1,BB,thnathf,1,Test,9839,0,A1OQCKKVK3DP94,3,1,a,0
2793,1,best,merly,1,Catch,4694,1,A1OQCKKVK3DP94,4,1,,1
2794,1,best,dellous,1,Catch,2570,1,A1OQCKKVK3DP94,5,1,,1
2795,1,worst,kflisgwevr,1,Catch,1898,0,A1OQCKKVK3DP94,6,1,,1
2796,1,best,claffer,1,Catch,1571,1,A1OQCKKVK3DP94,7,1,,1
2797,0,GG,krizz,0,Test,1935,1,A1OQCKKVK3DP94,8,1,i,0
2798,1,worst,wlratlumr,1,Catch,2171,0,A1OQCKKVK3DP94,9,1,,1
2799,1,GB,prad,0,Test,2013,0,A1OQCKKVK3DP94,10,1,a,0
2800,1,worst,lbafthrizk,1,Catch,8812,0,A1OQCKKVK3DP94,11,1,,1
2801,0,GG,blom,0,Test,2932,1,A1OQCKKVK3DP94,12,1,o,1
2802,1,BB,thmathf,1,Test,3155,0,A1OQCKKVK3DP94,13,1,a,0
2803,1,worst,zgdokpevf,1,Catch,1634,0,A1OQCKKVK3DP94,14,1,,0
2804,1,worst,tmuhriz,1,Catch,1834,0,A1OQCKKVK3DP94,15,1,,1
2805,1,best,bressic,1,Catch,1880,1,A1OQCKKVK3DP94,16,1,,1
2806,0,GG,thrit,0,Test,2415,1,A1OQCKKVK3DP94,17,1,i,0
2807,0,BG,shpeff,1,Test,3449,0,A1OQCKKVK3DP94,18,1,e,1
2808,0,GG,shrell,0,Test,2001,1,A1OQCKKVK3DP94,19,1,e,0
2809,1,GB,skuthp,0,Test,5064,0,A1OQCKKVK3DP94,20,1,u,0
2810,0,BG,hrul,1,Test,3265,0,A1OQCKKVK3DP94,21,1,u,1
2811,1,BB,shlokp,1,Test,3026,0,A1OQCKKVK3DP94,22,1,o,1
2812,1,GB,trusf,0,Test,2143,0,A1OQCKKVK3DP94,23,1,u,1
2813,0,BG,thnoop,1,Test,2104,0,A1OQCKKVK3DP94,24,1,oo,1
2814,1,BB,shtopk,1,Test,2960,0,A1OQCKKVK3DP94,25,1,o,0
2815,0,BG,shlock,1,Test,3275,1,A1OQCKKVK3DP94,26,1,o,0
2816,1,GB,brafsh,0,Test,2899,0,A1OQCKKVK3DP94,27,1,a,1
2817,1,GB,flepk,0,Test,2359,0,A1OQCKKVK3DP94,28,1,e,0
2818,1,best,frotion,1,Catch,2160,1,A1OQCKKVK3DP94,29,1,,1
2819,0,GG,gloo,0,Test,2044,1,A1OQCKKVK3DP94,30,1,oo,0
2820,0,BG,zmen,1,Test,1499,0,A1OQCKKVK3DP94,31,1,e,0
2821,0,BG,dlood,1,Test,3419,0,A1OQCKKVK3DP94,32,1,oo,0
2822,1,BB,shtithp,1,Test,3402,0,A1OQCKKVK3DP94,33,1,i,1
2823,0,GG,froom,0,Test,1531,1,A1OQCKKVK3DP94,34,1,oo,1
2824,1,worst,psafzotrl,1,Catch,2795,0,A1OQCKKVK3DP94,35,1,,0
2825,1,GB,slemth,0,Test,3019,1,A1OQCKKVK3DP94,36,1,e,1
2826,1,BB,shpishk,1,Test,3906,0,A1OQCKKVK3DP94,37,1,i,0
2827,1,best,spellion,1,Catch,2091,1,A1OQCKKVK3DP94,38,1,,0
3079,1,GB,flepk,0,Test,8005,0,A1SMWAYI7070NQ,3,1,e,0
3080,1,worst,zgdokpevf,1,Catch,3579,0,A1SMWAYI7070NQ,4,1,,0
3081,1,worst,lbafthrizk,1,Catch,6545,0,A1SMWAYI7070NQ,5,1,,1
3082,1,GB,slemth,0,Test,3782,0,A1SMWAYI7070NQ,6,1,e,1
3083,1,BB,shtopk,1,Test,3602,0,A1SMWAYI7070NQ,7,1,o,0
3084,0,GG,froom,0,Test,4880,0,A1SMWAYI7070NQ,8,1,oo,0
3085,0,GG,shrell,0,Test,4730,0,A1SMWAYI7070NQ,9,1,e,1
3086,0,GG,krizz,0,Test,8363,0,A1SMWAYI7070NQ,10,1,i,0
3087,0,GG,gloo,0,Test,8440,0,A1SMWAYI7070NQ,11,1,oo,0
3088,0,BG,dlood,1,Test,3463,0,A1SMWAYI7070NQ,12,1,oo,1
3089,1,BB,shpishk,1,Test,5622,0,A1SMWAYI7070NQ,13,1,i,1
3090,1,GB,trusf,0,Test,2971,0,A1SMWAYI7070NQ,14,1,u,1
3091,0,BG,thnoop,1,Test,5833,0,A1SMWAYI7070NQ,15,1,oo,1
3092,1,best,spellion,1,Catch,6694,0,A1SMWAYI7070NQ,16,1,,0
3093,1,BB,thmathf,1,Test,2378,0,A1SMWAYI7070NQ,17,1,a,1
3094,1,GB,brafsh,0,Test,2217,0,A1SMWAYI7070NQ,18,1,a,1
3095,1,GB,prad,0,Test,3625,0,A1SMWAYI7070NQ,19,1,a,0
3096,1,BB,shtithp,1,Test,5043,0,A1SMWAYI7070NQ,20,1,i,1
3097,1,worst,kflisgwevr,1,Catch,2839,0,A1SMWAYI7070NQ,21,1,,1
3098,1,best,dellous,1,Catch,2989,0,A1SMWAYI7070NQ,22,1,,1
3099,0,BG,hrul,1,Test,5003,0,A1SMWAYI7070NQ,23,1,u,1
3100,1,best,bressic,1,Catch,2500,0,A1SMWAYI7070NQ,24,1,,0
3101,1,best,frotion,1,Catch,4846,0,A1SMWAYI7070NQ,25,1,,1
3102,1,best,claffer,1,Catch,5326,0,A1SMWAYI7070NQ,26,1,,0
3103,0,BG,shpeff,1,Test,2237,0,A1SMWAYI7070NQ,27,1,e,0
3104,1,worst,psafzotrl,1,Catch,2796,0,A1SMWAYI7070NQ,28,1,,1
3105,0,GG,thrit,0,Test,3233,0,A1SMWAYI7070NQ,29,1,i,1
3106,0,BG,zmen,1,Test,3712,1,A1SMWAYI7070NQ,30,1,e,0
3107,0,GG,blom,0,Test,3076,0,A1SMWAYI7070NQ,31,1,o,0
3108,1,worst,tmuhriz,1,Catch,2330,0,A1SMWAYI7070NQ,32,1,,1
3109,1,BB,shlokp,1,Test,2371,0,A1SMWAYI7070NQ,33,1,o,1
3110,1,best,merly,1,Catch,5032,1,A1SMWAYI7070NQ,34,1,,0
3111,1,GB,skuthp,0,Test,3399,0,A1SMWAYI7070NQ,35,1,u,1
3112,1,worst,wlratlumr,1,Catch,2403,0,A1SMWAYI7070NQ,36,1,,1
3113,0,BG,shlock,1,Test,4581,1,A1SMWAYI7070NQ,37,1,o,1
3114,1,BB,thnathf,1,Test,1533,0,A1SMWAYI7070NQ,38,1,a,1
3287,1,GB,stithp,0,Test,19335,0,A1TMCZKS5ZBL8U,3,3,i,1
3288,0,BG,hroom,1,Test,8470,0,A1TMCZKS5ZBL8U,4,3,oo,0
3289,1,BB,vlemth,1,Test,6653,0,A1TMCZKS5ZBL8U,5,3,e,0
3290,1,worst,wlratlumr,1,Catch,2447,0,A1TMCZKS5ZBL8U,6,3,,1
3291,1,worst,tmuhriz,1,Catch,2007,0,A1TMCZKS5ZBL8U,7,3,,0
3292,1,worst,zgdokpevf,1,Catch,1656,0,A1TMCZKS5ZBL8U,8,3,,0
3293,0,BG,dloo,1,Test,3637,1,A1TMCZKS5ZBL8U,9,3,oo,1
3294,1,best,claffer,1,Catch,2196,1,A1TMCZKS5ZBL8U,10,3,,0
3295,1,best,frotion,1,Catch,3187,1,A1TMCZKS5ZBL8U,11,3,,0
3296,1,GB,drathf,0,Test,1777,0,A1TMCZKS5ZBL8U,12,3,a,1
3297,1,GB,gropk,0,Test,1168,0,A1TMCZKS5ZBL8U,13,3,o,1
3298,1,best,spellion,1,Catch,1998,1,A1TMCZKS5ZBL8U,14,3,,1
3299,1,GB,swokp,0,Test,3665,0,A1TMCZKS5ZBL8U,15,3,o,0
3300,1,worst,lbafthrizk,1,Catch,3774,0,A1TMCZKS5ZBL8U,16,3,,0
3301,1,BB,shnuthp,1,Test,1367,1,A1TMCZKS5ZBL8U,17,3,u,1
3302,0,GG,skreff,0,Test,1358,1,A1TMCZKS5ZBL8U,18,3,e,1
3303,0,GG,splock,0,Test,3885,1,A1TMCZKS5ZBL8U,19,3,o,1
3304,1,BB,lrusf,1,Test,1898,0,A1TMCZKS5ZBL8U,20,3,u,0
3305,1,GB,snathf,0,Test,2036,0,A1TMCZKS5ZBL8U,21,3,a,0
3306,1,BB,thmepk,1,Test,1088,0,A1TMCZKS5ZBL8U,22,3,e,0
3307,0,GG,smul,0,Test,2606,1,A1TMCZKS5ZBL8U,23,3,u,1
3308,0,GG,kloop,0,Test,1856,1,A1TMCZKS5ZBL8U,24,3,oo,1
3309,1,worst,kflisgwevr,1,Catch,2188,0,A1TMCZKS5ZBL8U,25,3,,0
3310,1,best,bressic,1,Catch,2028,0,A1TMCZKS5ZBL8U,26,3,,1
3311,1,BB,vlafsh,1,Test,1394,0,A1TMCZKS5ZBL8U,27,3,a,1
3312,0,GG,plen,0,Test,1567,1,A1TMCZKS5ZBL8U,28,3,e,1
3313,1,BB,zmad,1,Test,1748,0,A1TMCZKS5ZBL8U,29,3,a,0
3314,0,BG,thlom,1,Test,2305,0,A1TMCZKS5ZBL8U,30,3,o,1
3315,1,best,merly,1,Catch,1837,1,A1TMCZKS5ZBL8U,31,3,,0
3316,1,worst,psafzotrl,1,Catch,1438,0,A1TMCZKS5ZBL8U,32,3,,0
3317,1,best,dellous,1,Catch,2655,1,A1TMCZKS5ZBL8U,33,3,,1
3318,0,GG,spood,0,Test,1647,1,A1TMCZKS5ZBL8U,34,3,oo,1
3319,0,BG,lrit,1,Test,2904,1,A1TMCZKS5ZBL8U,35,3,i,0
3320,0,BG,shnell,1,Test,2636,1,A1TMCZKS5ZBL8U,36,3,e,1
3321,1,GB,strishk,0,Test,1548,0,A1TMCZKS5ZBL8U,37,3,i,1
3322,0,BG,thlizz,1,Test,3114,0,A1TMCZKS5ZBL8U,38,3,i,0
3450,1,best,claffer,1,Catch,12925,1,A1U8QI4H4ND1FP,3,2,,1
3451,0,BG,vlack,1,Test,2885,0,A1U8QI4H4ND1FP,4,2,a,1
3452,0,BG,shnun,1,Test,2396,0,A1U8QI4H4ND1FP,5,2,u,1
3453,0,BG,lrug,1,Test,1298,1,A1U8QI4H4ND1FP,6,2,u,1
3454,1,best,dellous,1,Catch,1884,1,A1U8QI4H4ND1FP,7,2,,0
3455,1,BB,dlooshp,1,Test,3389,0,A1U8QI4H4ND1FP,8,2,oo,1
3456,1,best,spellion,1,Catch,2258,1,A1U8QI4H4ND1FP,9,2,,0
3457,0,GG,snass,0,Test,1748,1,A1U8QI4H4ND1FP,10,2,a,1
3458,1,BB,zmemth,1,Test,1433,0,A1U8QI4H4ND1FP,11,2,e,1
3459,1,GB,shrethk,0,Test,3024,0,A1U8QI4H4ND1FP,12,2,e,0
3460,0,GG,grot,0,Test,1765,1,A1U8QI4H4ND1FP,13,2,o,0
3461,1,best,bressic,1,Catch,1871,1,A1U8QI4H4ND1FP,14,2,,1
3462,1,best,merly,1,Catch,1448,1,A1U8QI4H4ND1FP,15,2,,0
3463,1,worst,zgdokpevf,1,Catch,1177,0,A1U8QI4H4ND1FP,16,2,,0
3464,0,GG,drass,0,Test,2462,1,A1U8QI4H4ND1FP,17,2,a,0
3465,1,worst,lbafthrizk,1,Catch,1267,0,A1U8QI4H4ND1FP,18,2,,0
3466,0,BG,zmaz,1,Test,1649,0,A1U8QI4H4ND1FP,19,2,a,1
3467,1,worst,wlratlumr,1,Catch,2065,0,A1U8QI4H4ND1FP,20,2,,1
3468,0,BG,vle,1,Test,3464,0,A1U8QI4H4ND1FP,21,2,e,0
3469,1,BB,shpefsh,1,Test,1961,0,A1U8QI4H4ND1FP,22,2,e,0
3470,1,GB,blod,0,Test,2269,1,A1U8QI4H4ND1FP,23,2,o,1
3471,0,GG,swod,0,Test,1587,1,A1U8QI4H4ND1FP,24,2,o,1
3472,1,GB,krishp,0,Test,2802,1,A1U8QI4H4ND1FP,25,2,i,1
3473,1,BB,thnoothk,1,Test,4445,0,A1U8QI4H4ND1FP,26,2,oo,0
3474,0,GG,striff,0,Test,1421,1,A1U8QI4H4ND1FP,27,2,i,0
3475,1,GB,thrishk,0,Test,2838,1,A1U8QI4H4ND1FP,28,2,i,0
3476,1,BB,hrutp,1,Test,2119,1,A1U8QI4H4ND1FP,29,2,u,1
3477,1,BB,shlokp,1,Test,2972,1,A1U8QI4H4ND1FP,30,2,o,1
3478,1,worst,tmuhriz,1,Catch,2612,0,A1U8QI4H4ND1FP,31,2,,0
3479,1,worst,kflisgwevr,1,Catch,2304,0,A1U8QI4H4ND1FP,32,2,,0
3480,0,GG,stip,0,Test,1375,1,A1U8QI4H4ND1FP,33,2,i,0
3481,0,BG,thmeg,1,Test,1618,1,A1U8QI4H4ND1FP,34,2,e,1
3482,1,best,frotion,1,Catch,1454,1,A1U8QI4H4ND1FP,35,2,,1
3483,1,worst,psafzotrl,1,Catch,2273,0,A1U8QI4H4ND1FP,36,2,,0
3484,1,GB,gloosf,0,Test,2327,0,A1U8QI4H4ND1FP,37,2,oo,0
3485,1,GB,frootp,0,Test,4009,1,A1U8QI4H4ND1FP,38,2,oo,1
3694,0,BG,lrit,1,Test,7913,1,A1VQZA6ZFJB224,3,3,i,1
3695,1,worst,zgdokpevf,1,Catch,7013,0,A1VQZA6ZFJB224,4,3,,1
3696,1,worst,lbafthrizk,1,Catch,4107,0,A1VQZA6ZFJB224,5,3,,1
3697,1,worst,tmuhriz,1,Catch,1728,1,A1VQZA6ZFJB224,6,3,,0
3698,1,GB,snathf,0,Test,4621,1,A1VQZA6ZFJB224,7,3,a,1
3699,0,BG,hroom,1,Test,3301,1,A1VQZA6ZFJB224,8,3,oo,1
3700,1,best,dellous,1,Catch,2236,1,A1VQZA6ZFJB224,9,3,,1
3701,1,worst,wlratlumr,1,Catch,3174,1,A1VQZA6ZFJB224,10,3,,0
3702,1,GB,gropk,0,Test,5868,0,A1VQZA6ZFJB224,11,3,o,0
3703,0,GG,smul,0,Test,2739,0,A1VQZA6ZFJB224,12,3,u,0
3704,0,BG,dloo,1,Test,3285,1,A1VQZA6ZFJB224,13,3,oo,1
3705,1,BB,vlafsh,1,Test,4361,0,A1VQZA6ZFJB224,14,3,a,1
3706,1,worst,kflisgwevr,1,Catch,51330,0,A1VQZA6ZFJB224,15,3,,0
3707,1,best,claffer,1,Catch,5585,1,A1VQZA6ZFJB224,16,3,,1
3708,1,best,bressic,1,Catch,5200,0,A1VQZA6ZFJB224,17,3,,0
3709,1,BB,shnuthp,1,Test,2355,0,A1VQZA6ZFJB224,18,3,u,0
3710,1,best,merly,1,Catch,3478,1,A1VQZA6ZFJB224,19,3,,0
3711,1,GB,stithp,0,Test,2167,1,A1VQZA6ZFJB224,20,3,i,1
3712,0,GG,skreff,0,Test,3736,0,A1VQZA6ZFJB224,21,3,e,1
3713,1,BB,thmepk,1,Test,1990,0,A1VQZA6ZFJB224,22,3,e,1
3714,0,GG,plen,0,Test,2527,1,A1VQZA6ZFJB224,23,3,e,0
3715,0,BG,thlom,1,Test,4020,0,A1VQZA6ZFJB224,24,3,o,1
3716,1,GB,drathf,0,Test,2760,1,A1VQZA6ZFJB224,25,3,a,1
3717,1,BB,zmad,1,Test,1868,0,A1VQZA6ZFJB224,26,3,a,1
3718,0,GG,splock,0,Test,3038,1,A1VQZA6ZFJB224,27,3,o,0
3719,0,BG,shnell,1,Test,3259,1,A1VQZA6ZFJB224,28,3,e,1
3720,0,GG,spood,0,Test,2388,1,A1VQZA6ZFJB224,29,3,oo,1
3721,1,best,spellion,1,Catch,3169,1,A1VQZA6ZFJB224,30,3,,1
3722,0,GG,kloop,0,Test,3246,1,A1VQZA6ZFJB224,31,3,oo,1
3723,1,GB,strishk,0,Test,2455,0,A1VQZA6ZFJB224,32,3,i,1
3724,1,GB,swokp,0,Test,2379,0,A1VQZA6ZFJB224,33,3,o,1
3725,1,worst,psafzotrl,1,Catch,4897,0,A1VQZA6ZFJB224,34,3,,0
3726,1,BB,lrusf,1,Test,2077,0,A1VQZA6ZFJB224,35,3,u,0
3727,1,BB,vlemth,1,Test,2338,0,A1VQZA6ZFJB224,36,3,e,1
3728,0,BG,thlizz,1,Test,2041,0,A1VQZA6ZFJB224,37,3,i,1
3729,1,best,frotion,1,Catch,4190,0,A1VQZA6ZFJB224,38,3,,0
3776,0,BG,lrug,1,Test,9140,0,A1VYQ8VL4HIP03,3,2,u,1
3777,0,GG,swod,0,Test,2724,1,A1VYQ8VL4HIP03,4,2,o,0
3778,1,best,merly,1,Catch,1874,1,A1VYQ8VL4HIP03,5,2,,0
3779,0,BG,shnun,1,Test,1503,0,A1VYQ8VL4HIP03,6,2,u,1
3780,1,best,spellion,1,Catch,1383,1,A1VYQ8VL4HIP03,7,2,,0
3781,1,worst,lbafthrizk,1,Catch,1304,0,A1VYQ8VL4HIP03,8,2,,1
3782,1,BB,shlokp,1,Test,2225,1,A1VYQ8VL4HIP03,9,2,o,1
3783,1,BB,hrutp,1,Test,1589,0,A1VYQ8VL4HIP03,10,2,u,0
3784,0,BG,zmaz,1,Test,2551,1,A1VYQ8VL4HIP03,11,2,a,1
3785,1,GB,krishp,0,Test,2105,1,A1VYQ8VL4HIP03,12,2,i,0
3786,0,GG,snass,0,Test,1265,1,A1VYQ8VL4HIP03,13,2,a,0
3787,1,BB,zmemth,1,Test,2934,0,A1VYQ8VL4HIP03,14,2,e,0
3788,1,worst,tmuhriz,1,Catch,1465,0,A1VYQ8VL4HIP03,15,2,,1
3789,0,GG,striff,0,Test,1469,0,A1VYQ8VL4HIP03,16,2,i,0
3790,1,BB,thnoothk,1,Test,1234,0,A1VYQ8VL4HIP03,17,2,oo,0
3791,1,BB,dlooshp,1,Test,1165,0,A1VYQ8VL4HIP03,18,2,oo,0
3792,1,BB,shpefsh,1,Test,1021,0,A1VYQ8VL4HIP03,19,2,e,0
3793,1,GB,shrethk,0,Test,1271,1,A1VYQ8VL4HIP03,20,2,e,0
3794,0,GG,stip,0,Test,1413,1,A1VYQ8VL4HIP03,21,2,i,1
3795,1,best,dellous,1,Catch,1135,1,A1VYQ8VL4HIP03,22,2,,1
3796,1,GB,gloosf,0,Test,1567,0,A1VYQ8VL4HIP03,23,2,oo,0
3797,1,best,bressic,1,Catch,1721,1,A1VYQ8VL4HIP03,24,2,,1
3798,1,worst,wlratlumr,1,Catch,1194,0,A1VYQ8VL4HIP03,25,2,,1
3799,1,worst,psafzotrl,1,Catch,954,0,A1VYQ8VL4HIP03,26,2,,1
3800,0,GG,grot,0,Test,991,1,A1VYQ8VL4HIP03,27,2,o,1
3801,1,worst,zgdokpevf,1,Catch,914,0,A1VYQ8VL4HIP03,28,2,,1
3802,1,best,claffer,1,Catch,1032,1,A1VYQ8VL4HIP03,29,2,,1
3803,1,GB,thrishk,0,Test,1033,1,A1VYQ8VL4HIP03,30,2,i,0
3804,1,GB,blod,0,Test,1567,0,A1VYQ8VL4HIP03,31,2,o,1
3805,0,GG,drass,0,Test,1421,1,A1VYQ8VL4HIP03,32,2,a,1
3806,0,BG,vlack,1,Test,1118,1,A1VYQ8VL4HIP03,33,2,a,1
3807,1,GB,frootp,0,Test,1415,0,A1VYQ8VL4HIP03,34,2,oo,1
3808,1,best,frotion,1,Catch,1150,1,A1VYQ8VL4HIP03,35,2,,1
3809,0,BG,vle,1,Test,1579,1,A1VYQ8VL4HIP03,36,2,e,0
3810,0,BG,thmeg,1,Test,1941,0,A1VYQ8VL4HIP03,37,2,e,1
3811,1,worst,kflisgwevr,1,Catch,1217,0,A1VYQ8VL4HIP03,38,2,,1
3857,1,best,merly,1,Catch,10373,0,A1W17OY3AO1B72,3,3,,1
3858,0,GG,plen,0,Test,2668,1,A1W17OY3AO1B72,4,3,e,0
3859,1,best,bressic,1,Catch,4804,0,A1W17OY3AO1B72,5,3,,0
3860,0,BG,thlizz,1,Test,1716,0,A1W17OY3AO1B72,6,3,i,0
3861,1,BB,vlafsh,1,Test,1632,0,A1W17OY3AO1B72,7,3,a,1
3862,1,GB,swokp,0,Test,2048,1,A1W17OY3AO1B72,8,3,o,0
3863,1,BB,vlemth,1,Test,1404,1,A1W17OY3AO1B72,9,3,e,0
3864,0,GG,smul,0,Test,1608,0,A1W17OY3AO1B72,10,3,u,0
3865,0,GG,skreff,0,Test,1458,1,A1W17OY3AO1B72,11,3,e,0
3866,0,GG,spood,0,Test,1828,0,A1W17OY3AO1B72,12,3,oo,0
3867,1,BB,shnuthp,1,Test,2688,0,A1W17OY3AO1B72,13,3,u,1
3868,1,GB,snathf,0,Test,1665,1,A1W17OY3AO1B72,14,3,a,0
3869,0,BG,shnell,1,Test,1764,1,A1W17OY3AO1B72,15,3,e,0
3870,1,worst,wlratlumr,1,Catch,1615,0,A1W17OY3AO1B72,16,3,,1
3871,0,BG,lrit,1,Test,1617,0,A1W17OY3AO1B72,17,3,i,0
3872,1,GB,stithp,0,Test,1440,1,A1W17OY3AO1B72,18,3,i,0
3873,1,worst,kflisgwevr,1,Catch,1478,0,A1W17OY3AO1B72,19,3,,1
3874,1,best,frotion,1,Catch,1946,1,A1W17OY3AO1B72,20,3,,0
3875,1,best,dellous,1,Catch,1407,0,A1W17OY3AO1B72,21,3,,0
3876,1,BB,lrusf,1,Test,1486,1,A1W17OY3AO1B72,22,3,u,0
3877,0,BG,hroom,1,Test,4703,0,A1W17OY3AO1B72,23,3,oo,1
3878,1,GB,strishk,0,Test,1617,0,A1W17OY3AO1B72,24,3,i,1
3879,0,GG,splock,0,Test,1809,1,A1W17OY3AO1B72,25,3,o,1
3880,1,best,spellion,1,Catch,1343,1,A1W17OY3AO1B72,26,3,,1
3881,1,GB,gropk,0,Test,1529,1,A1W17OY3AO1B72,27,3,o,0
3882,1,worst,zgdokpevf,1,Catch,1448,1,A1W17OY3AO1B72,28,3,,0
3883,1,best,claffer,1,Catch,1486,0,A1W17OY3AO1B72,29,3,,0
3884,1,worst,psafzotrl,1,Catch,1543,0,A1W17OY3AO1B72,30,3,,1
3885,1,BB,zmad,1,Test,1471,0,A1W17OY3AO1B72,31,3,a,1
3886,0,BG,dloo,1,Test,2154,1,A1W17OY3AO1B72,32,3,oo,1
3887,0,BG,thlom,1,Test,1329,1,A1W17OY3AO1B72,33,3,o,0
3888,0,GG,kloop,0,Test,1124,0,A1W17OY3AO1B72,34,3,oo,1
3889,1,worst,lbafthrizk,1,Catch,1325,0,A1W17OY3AO1B72,35,3,,1
3890,1,BB,thmepk,1,Test,1165,0,A1W17OY3AO1B72,36,3,e,1
3891,1,GB,drathf,0,Test,1448,1,A1W17OY3AO1B72,37,3,a,0
3892,1,worst,tmuhriz,1,Catch,1208,1,A1W17OY3AO1B72,38,3,,0
4099,1,BB,shpefsh,1,Test,5281,0,A1YWJ3SMYC3W23,3,2,e,1
4100,0,BG,thmeg,1,Test,5897,0,A1YWJ3SMYC3W23,4,2,e,0
4101,1,BB,dlooshp,1,Test,4857,0,A1YWJ3SMYC3W23,5,2,oo,0
4102,0,BG,vlack,1,Test,5720,1,A1YWJ3SMYC3W23,6,2,a,1
4103,0,BG,vle,1,Test,3996,1,A1YWJ3SMYC3W23,7,2,e,1
4104,1,best,bressic,1,Catch,2683,1,A1YWJ3SMYC3W23,8,2,,0
4105,1,GB,krishp,0,Test,2424,0,A1YWJ3SMYC3W23,9,2,i,1
4106,0,GG,grot,0,Test,1774,1,A1YWJ3SMYC3W23,10,2,o,0
4107,0,GG,drass,0,Test,1954,1,A1YWJ3SMYC3W23,11,2,a,0
4108,1,BB,shlokp,1,Test,2183,0,A1YWJ3SMYC3W23,12,2,o,0
4109,1,BB,thnoothk,1,Test,2099,0,A1YWJ3SMYC3W23,13,2,oo,0
4110,1,best,frotion,1,Catch,2094,1,A1YWJ3SMYC3W23,14,2,,0
4111,0,GG,stip,0,Test,1446,1,A1YWJ3SMYC3W23,15,2,i,0
4112,1,best,spellion,1,Catch,2523,1,A1YWJ3SMYC3W23,16,2,,0
4113,1,worst,lbafthrizk,1,Catch,1529,0,A1YWJ3SMYC3W23,17,2,,0
4114,0,GG,swod,0,Test,2905,1,A1YWJ3SMYC3W23,18,2,o,1
4115,1,best,dellous,1,Catch,2343,1,A1YWJ3SMYC3W23,19,2,,1
4116,1,GB,shrethk,0,Test,2136,0,A1YWJ3SMYC3W23,20,2,e,1
4117,1,worst,zgdokpevf,1,Catch,1852,0,A1YWJ3SMYC3W23,21,2,,0
4118,1,worst,wlratlumr,1,Catch,3484,0,A1YWJ3SMYC3W23,22,2,,0
4119,0,GG,snass,0,Test,1359,1,A1YWJ3SMYC3W23,23,2,a,0
4120,1,worst,tmuhriz,1,Catch,1606,0,A1YWJ3SMYC3W23,24,2,,0
4121,1,GB,blod,0,Test,3599,0,A1YWJ3SMYC3W23,25,2,o,1
4122,0,BG,lrug,1,Test,2006,0,A1YWJ3SMYC3W23,26,2,u,0
4123,1,GB,thrishk,0,Test,3996,0,A1YWJ3SMYC3W23,27,2,i,0
4124,1,best,merly,1,Catch,1647,1,A1YWJ3SMYC3W23,28,2,,1
4125,1,worst,kflisgwevr,1,Catch,4150,0,A1YWJ3SMYC3W23,29,2,,0
4126,1,BB,zmemth,1,Test,2361,0,A1YWJ3SMYC3W23,30,2,e,0
4127,0,BG,shnun,1,Test,3217,0,A1YWJ3SMYC3W23,31,2,u,1
4128,0,BG,zmaz,1,Test,3265,1,A1YWJ3SMYC3W23,32,2,a,1
4129,1,BB,hrutp,1,Test,1807,0,A1YWJ3SMYC3W23,33,2,u,0
4130,1,GB,gloosf,0,Test,2111,0,A1YWJ3SMYC3W23,34,2,oo,1
4131,0,GG,striff,0,Test,1601,1,A1YWJ3SMYC3W23,35,2,i,0
4132,1,worst,psafzotrl,1,Catch,1415,0,A1YWJ3SMYC3W23,36,2,,0
4133,1,GB,frootp,0,Test,3164,0,A1YWJ3SMYC3W23,37,2,oo,1
4134,1,best,claffer,1,Catch,1419,1,A1YWJ3SMYC3W23,38,2,,0
4188,0,BG,hrul,1,Test,9821,0,A1ZQAFHB1PO1CZ,3,1,u,0
4189,1,best,frotion,1,Catch,6324,1,A1ZQAFHB1PO1CZ,4,1,,1
4190,1,BB,thnathf,1,Test,1664,0,A1ZQAFHB1PO1CZ,5,1,a,1
4191,1,GB,slemth,0,Test,3174,1,A1ZQAFHB1PO1CZ,6,1,e,0
4192,1,BB,shlokp,1,Test,1398,0,A1ZQAFHB1PO1CZ,7,1,o,0
4193,0,BG,zmen,1,Test,1939,0,A1ZQAFHB1PO1CZ,8,1,e,1
4194,1,GB,trusf,0,Test,1534,1,A1ZQAFHB1PO1CZ,9,1,u,0
4195,1,BB,shpishk,1,Test,2209,0,A1ZQAFHB1PO1CZ,10,1,i,1
4196,1,worst,kflisgwevr,1,Catch,1374,0,A1ZQAFHB1PO1CZ,11,1,,0
4197,1,best,bressic,1,Catch,1941,0,A1ZQAFHB1PO1CZ,12,1,,0
4198,1,best,spellion,1,Catch,3292,0,A1ZQAFHB1PO1CZ,13,1,,1
4199,1,best,merly,1,Catch,1681,1,A1ZQAFHB1PO1CZ,14,1,,1
4200,1,worst,zgdokpevf,1,Catch,1094,0,A1ZQAFHB1PO1CZ,15,1,,1
4201,1,worst,wlratlumr,1,Catch,1240,0,A1ZQAFHB1PO1CZ,16,1,,0
4202,0,BG,dlood,1,Test,1364,0,A1ZQAFHB1PO1CZ,17,1,oo,0
4203,0,BG,shpeff,1,Test,2332,0,A1ZQAFHB1PO1CZ,18,1,e,1
4204,1,worst,lbafthrizk,1,Catch,1117,0,A1ZQAFHB1PO1CZ,19,1,,0
4205,1,best,dellous,1,Catch,2544,1,A1ZQAFHB1PO1CZ,20,1,,1
4206,0,GG,blom,0,Test,5979,0,A1ZQAFHB1PO1CZ,21,1,o,0
4207,1,GB,brafsh,0,Test,2085,0,A1ZQAFHB1PO1CZ,22,1,a,0
4208,1,GB,prad,0,Test,1172,0,A1ZQAFHB1PO1CZ,23,1,a,0
4209,0,GG,shrell,0,Test,6390,0,A1ZQAFHB1PO1CZ,24,1,e,0
4210,0,GG,thrit,0,Test,2755,1,A1ZQAFHB1PO1CZ,25,1,i,1
4211,0,GG,froom,0,Test,6335,0,A1ZQAFHB1PO1CZ,26,1,oo,1
4212,1,worst,tmuhriz,1,Catch,1094,0,A1ZQAFHB1PO1CZ,27,1,,1
4213,1,best,claffer,1,Catch,2896,0,A1ZQAFHB1PO1CZ,28,1,,0
4214,1,worst,psafzotrl,1,Catch,1196,0,A1ZQAFHB1PO1CZ,29,1,,0
4215,1,GB,flepk,0,Test,1284,0,A1ZQAFHB1PO1CZ,30,1,e,0
4216,0,GG,krizz,0,Test,1835,0,A1ZQAFHB1PO1CZ,31,1,i,1
4217,0,GG,gloo,0,Test,2889,1,A1ZQAFHB1PO1CZ,32,1,oo,1
4218,1,BB,shtithp,1,Test,2980,0,A1ZQAFHB1PO1CZ,33,1,i,1
4219,0,BG,shlock,1,Test,4166,1,A1ZQAFHB1PO1CZ,34,1,o,0
4220,1,BB,thmathf,1,Test,1239,0,A1ZQAFHB1PO1CZ,35,1,a,0
4221,1,GB,skuthp,0,Test,3400,0,A1ZQAFHB1PO1CZ,36,1,u,0
4222,1,BB,shtopk,1,Test,1806,0,A1ZQAFHB1PO1CZ,37,1,o,1
4223,0,BG,thnoop,1,Test,1883,0,A1ZQAFHB1PO1CZ,38,1,oo,1
4402,1,GB,strishk,0,Test,11975,0,A21QCCTHXWLFKS,3,3,i,1
4403,1,worst,psafzotrl,1,Catch,4266,0,A21QCCTHXWLFKS,4,3,,0
4404,1,worst,zgdokpevf,1,Catch,2983,0,A21QCCTHXWLFKS,5,3,,0
4405,1,best,claffer,1,Catch,3516,1,A21QCCTHXWLFKS,6,3,,1
4406,1,GB,gropk,0,Test,3275,0,A21QCCTHXWLFKS,7,3,o,0
4407,1,GB,drathf,0,Test,3613,0,A21QCCTHXWLFKS,8,3,a,1
4408,1,worst,tmuhriz,1,Catch,2909,0,A21QCCTHXWLFKS,9,3,,1
4409,1,best,spellion,1,Catch,3834,1,A21QCCTHXWLFKS,10,3,,0
4410,0,BG,thlizz,1,Test,2688,0,A21QCCTHXWLFKS,11,3,i,0
4411,0,GG,plen,0,Test,2352,0,A21QCCTHXWLFKS,12,3,e,1
4412,0,GG,skreff,0,Test,2254,0,A21QCCTHXWLFKS,13,3,e,0
4413,1,worst,kflisgwevr,1,Catch,1963,0,A21QCCTHXWLFKS,14,3,,0
4414,1,best,bressic,1,Catch,2999,1,A21QCCTHXWLFKS,15,3,,1
4415,0,BG,dloo,1,Test,1945,0,A21QCCTHXWLFKS,16,3,oo,1
4416,1,worst,wlratlumr,1,Catch,2036,0,A21QCCTHXWLFKS,17,3,,0
4417,1,GB,snathf,0,Test,2812,0,A21QCCTHXWLFKS,18,3,a,0
4418,1,BB,vlemth,1,Test,2274,0,A21QCCTHXWLFKS,19,3,e,1
4419,1,BB,vlafsh,1,Test,2502,0,A21QCCTHXWLFKS,20,3,a,0
4420,0,BG,shnell,1,Test,2117,1,A21QCCTHXWLFKS,21,3,e,1
4421,0,BG,hroom,1,Test,2740,0,A21QCCTHXWLFKS,22,3,oo,0
4422,0,GG,smul,0,Test,3193,1,A21QCCTHXWLFKS,23,3,u,1
4423,1,BB,zmad,1,Test,2005,0,A21QCCTHXWLFKS,24,3,a,0
4424,0,BG,thlom,1,Test,3900,0,A21QCCTHXWLFKS,25,3,o,0
4425,1,worst,lbafthrizk,1,Catch,1852,0,A21QCCTHXWLFKS,26,3,,1
4426,0,GG,spood,0,Test,1776,1,A21QCCTHXWLFKS,27,3,oo,0
4427,1,best,merly,1,Catch,2243,1,A21QCCTHXWLFKS,28,3,,0
4428,1,GB,swokp,0,Test,1769,0,A21QCCTHXWLFKS,29,3,o,0
4429,0,BG,lrit,1,Test,1871,0,A21QCCTHXWLFKS,30,3,i,0
4430,1,GB,stithp,0,Test,4502,0,A21QCCTHXWLFKS,31,3,i,1
4431,1,BB,lrusf,1,Test,1896,0,A21QCCTHXWLFKS,32,3,u,1
4432,1,BB,shnuthp,1,Test,2272,0,A21QCCTHXWLFKS,33,3,u,0
4433,0,GG,kloop,0,Test,1812,1,A21QCCTHXWLFKS,34,3,oo,1
4434,1,BB,thmepk,1,Test,1862,0,A21QCCTHXWLFKS,35,3,e,1
4435,1,best,frotion,1,Catch,2187,1,A21QCCTHXWLFKS,36,3,,0
4436,1,best,dellous,1,Catch,2999,1,A21QCCTHXWLFKS,37,3,,1
4437,0,GG,splock,0,Test,2553,1,A21QCCTHXWLFKS,38,3,o,0
4561,0,BG,shtip,1,Test,6904,1,A21UA6O7ZFAIQJ,3,0,i,0
4562,1,BB,lrishk,1,Test,2753,0,A21UA6O7ZFAIQJ,4,0,i,0
4563,1,worst,tmuhriz,1,Catch,2128,0,A21UA6O7ZFAIQJ,5,0,,1
4564,1,worst,psafzotrl,1,Catch,2310,0,A21UA6O7ZFAIQJ,6,0,,0
4565,1,best,bressic,1,Catch,2160,1,A21UA6O7ZFAIQJ,7,0,,1
4566,0,GG,praz,0,Test,1733,1,A21UA6O7ZFAIQJ,8,0,a,0
4567,0,BG,shpiff,1,Test,1848,0,A21UA6O7ZFAIQJ,9,0,i,0
4568,1,GB,plemth,0,Test,1686,0,A21UA6O7ZFAIQJ,10,0,e,0
4569,0,GG,brack,0,Test,1746,1,A21UA6O7ZFAIQJ,11,0,a,1
4570,1,best,frotion,1,Catch,2246,1,A21UA6O7ZFAIQJ,12,0,,0
4571,1,BB,hrootp,1,Test,2214,0,A21UA6O7ZFAIQJ,13,0,oo,0
4572,1,GB,splokp,0,Test,1289,0,A21UA6O7ZFAIQJ,14,0,o,0
4573,0,GG,skun,0,Test,2410,1,A21UA6O7ZFAIQJ,15,0,u,1
4574,1,BB,thlod,1,Test,1814,0,A21UA6O7ZFAIQJ,16,0,o,0
4575,1,best,spellion,1,Catch,2189,1,A21UA6O7ZFAIQJ,17,0,,1
4576,1,BB,thlishp,1,Test,3141,0,A21UA6O7ZFAIQJ,18,0,i,0
4577,1,BB,dloosf,1,Test,3737,0,A21UA6O7ZFAIQJ,19,0,oo,1
4578,0,GG,fleg,0,Test,1546,1,A21UA6O7ZFAIQJ,20,0,e,1
4579,1,worst,zgdokpevf,1,Catch,1633,0,A21UA6O7ZFAIQJ,21,0,,0
4580,1,worst,wlratlumr,1,Catch,1518,0,A21UA6O7ZFAIQJ,22,0,,0
4581,0,GG,sle,0,Test,1506,1,A21UA6O7ZFAIQJ,23,0,e,0
4582,1,best,merly,1,Catch,3011,1,A21UA6O7ZFAIQJ,24,0,,1
4583,0,BG,shlod,1,Test,1791,1,A21UA6O7ZFAIQJ,25,0,o,0
4584,1,worst,lbafthrizk,1,Catch,1452,0,A21UA6O7ZFAIQJ,26,0,,0
4585,1,worst,kflisgwevr,1,Catch,2413,0,A21UA6O7ZFAIQJ,27,0,,1
4586,1,GB,spooshp,0,Test,2681,0,A21UA6O7ZFAIQJ,28,0,oo,0
4587,0,BG,thnass,1,Test,1415,0,A21UA6O7ZFAIQJ,29,0,a,1
4588,1,GB,skrefsh,0,Test,1917,0,A21UA6O7ZFAIQJ,30,0,e,0
4589,0,BG,shtot,1,Test,1474,0,A21UA6O7ZFAIQJ,31,0,o,0
4590,0,BG,thmass,1,Test,1926,0,A21UA6O7ZFAIQJ,32,0,a,0
4591,1,best,claffer,1,Catch,1223,1,A21UA6O7ZFAIQJ,33,0,,0
4592,1,GB,smutp,0,Test,2092,0,A21UA6O7ZFAIQJ,34,0,u,0
4593,1,best,dellous,1,Catch,2572,1,A21UA6O7ZFAIQJ,35,0,,0
4594,0,GG,trug,0,Test,1769,1,A21UA6O7ZFAIQJ,36,0,u,1
4595,1,BB,shnethk,1,Test,1255,0,A21UA6O7ZFAIQJ,37,0,e,1
4596,1,GB,kloothk,0,Test,1758,0,A21UA6O7ZFAIQJ,38,0,oo,0
5127,0,BG,shtot,1,Test,7828,0,A27XTUPJZARIC2,3,0,o,0
5128,1,BB,thlod,1,Test,2718,0,A27XTUPJZARIC2,4,0,o,0
5129,1,worst,psafzotrl,1,Catch,2095,0,A27XTUPJZARIC2,5,0,,0
5130,1,BB,shnethk,1,Test,2766,1,A27XTUPJZARIC2,6,0,e,1
5131,1,BB,dloosf,1,Test,4393,0,A27XTUPJZARIC2,7,0,oo,0
5132,1,worst,zgdokpevf,1,Catch,6785,0,A27XTUPJZARIC2,8,0,,1
5133,1,GB,skrefsh,0,Test,3249,0,A27XTUPJZARIC2,9,0,e,1
5134,1,best,frotion,1,Catch,2575,1,A27XTUPJZARIC2,10,0,,1
5135,0,GG,praz,0,Test,2729,1,A27XTUPJZARIC2,11,0,a,0
5136,1,GB,kloothk,0,Test,2343,0,A27XTUPJZARIC2,12,0,oo,1
5137,1,best,merly,1,Catch,2606,1,A27XTUPJZARIC2,13,0,,0
5138,1,GB,spooshp,0,Test,2966,0,A27XTUPJZARIC2,14,0,oo,0
5139,0,GG,trug,0,Test,1843,1,A27XTUPJZARIC2,15,0,u,0
5140,0,BG,shlod,1,Test,1864,0,A27XTUPJZARIC2,16,0,o,0
5141,0,BG,thmass,1,Test,2243,0,A27XTUPJZARIC2,17,0,a,0
5142,1,best,bressic,1,Catch,3846,1,A27XTUPJZARIC2,18,0,,0
5143,1,BB,lrishk,1,Test,3216,0,A27XTUPJZARIC2,19,0,i,0
5144,1,best,spellion,1,Catch,3330,1,A27XTUPJZARIC2,20,0,,1
5145,0,GG,sle,0,Test,3592,0,A27XTUPJZARIC2,21,0,e,0
5146,1,worst,tmuhriz,1,Catch,2140,0,A27XTUPJZARIC2,22,0,,1
5147,0,BG,thnass,1,Test,2094,0,A27XTUPJZARIC2,23,0,a,0
5148,0,BG,shtip,1,Test,2075,0,A27XTUPJZARIC2,24,0,i,1
5149,1,GB,plemth,0,Test,2732,1,A27XTUPJZARIC2,25,0,e,0
5150,1,BB,thlishp,1,Test,1751,1,A27XTUPJZARIC2,26,0,i,1
5151,0,BG,shpiff,1,Test,3157,0,A27XTUPJZARIC2,27,0,i,0
5152,1,worst,wlratlumr,1,Catch,2462,0,A27XTUPJZARIC2,28,0,,1
5153,1,BB,hrootp,1,Test,2228,0,A27XTUPJZARIC2,29,0,oo,1
5154,1,best,dellous,1,Catch,2559,1,A27XTUPJZARIC2,30,0,,0
5155,0,GG,skun,0,Test,2877,1,A27XTUPJZARIC2,31,0,u,0
5156,1,GB,splokp,0,Test,2626,0,A27XTUPJZARIC2,32,0,o,0
5157,0,GG,fleg,0,Test,2661,0,A27XTUPJZARIC2,33,0,e,1
5158,1,worst,lbafthrizk,1,Catch,1808,0,A27XTUPJZARIC2,34,0,,0
5159,0,GG,brack,0,Test,1741,1,A27XTUPJZARIC2,35,0,a,0
5160,1,worst,kflisgwevr,1,Catch,2095,0,A27XTUPJZARIC2,36,0,,1
5161,1,best,claffer,1,Catch,2620,1,A27XTUPJZARIC2,37,0,,1
5162,1,GB,smutp,0,Test,2566,0,A27XTUPJZARIC2,38,0,u,0
5260,0,GG,plen,0,Test,5478,1,A28J4SW0GG4II3,3,3,e,0
5261,1,GB,stithp,0,Test,2346,0,A28J4SW0GG4II3,4,3,i,0
5262,1,best,bressic,1,Catch,2337,1,A28J4SW0GG4II3,5,3,,1
5263,0,BG,lrit,1,Test,3543,1,A28J4SW0GG4II3,6,3,i,0
5264,0,BG,dloo,1,Test,1926,0,A28J4SW0GG4II3,7,3,oo,1
5265,1,worst,lbafthrizk,1,Catch,1834,0,A28J4SW0GG4II3,8,3,,1
5266,0,GG,smul,0,Test,1404,0,A28J4SW0GG4II3,9,3,u,1
5267,1,worst,psafzotrl,1,Catch,1816,0,A28J4SW0GG4II3,10,3,,0
5268,0,GG,splock,0,Test,2217,1,A28J4SW0GG4II3,11,3,o,0
5269,1,BB,lrusf,1,Test,2486,0,A28J4SW0GG4II3,12,3,u,0
5270,1,best,claffer,1,Catch,1449,1,A28J4SW0GG4II3,13,3,,0
5271,1,BB,thmepk,1,Test,2104,0,A28J4SW0GG4II3,14,3,e,1
5272,0,GG,spood,0,Test,2265,1,A28J4SW0GG4II3,15,3,oo,1
5273,1,GB,drathf,0,Test,2110,0,A28J4SW0GG4II3,16,3,a,0
5274,1,BB,zmad,1,Test,1802,0,A28J4SW0GG4II3,17,3,a,0
5275,0,BG,thlizz,1,Test,1649,0,A28J4SW0GG4II3,18,3,i,1
5276,1,best,spellion,1,Catch,1563,1,A28J4SW0GG4II3,19,3,,1
5277,1,GB,strishk,0,Test,2973,1,A28J4SW0GG4II3,20,3,i,0
5278,1,BB,vlafsh,1,Test,2141,0,A28J4SW0GG4II3,21,3,a,1
5279,0,GG,kloop,0,Test,1437,1,A28J4SW0GG4II3,22,3,oo,1
5280,1,worst,kflisgwevr,1,Catch,1655,0,A28J4SW0GG4II3,23,3,,1
5281,1,GB,gropk,0,Test,1859,1,A28J4SW0GG4II3,24,3,o,1
5282,1,worst,tmuhriz,1,Catch,2853,0,A28J4SW0GG4II3,25,3,,0
5283,1,worst,wlratlumr,1,Catch,1709,0,A28J4SW0GG4II3,26,3,,1
5284,1,GB,snathf,0,Test,2616,0,A28J4SW0GG4II3,27,3,a,1
5285,0,BG,thlom,1,Test,2135,1,A28J4SW0GG4II3,28,3,o,0
5286,0,BG,hroom,1,Test,1871,0,A28J4SW0GG4II3,29,3,oo,0
5287,1,best,dellous,1,Catch,1596,1,A28J4SW0GG4II3,30,3,,0
5288,0,BG,shnell,1,Test,1875,1,A28J4SW0GG4II3,31,3,e,0
5289,1,best,merly,1,Catch,1273,1,A28J4SW0GG4II3,32,3,,0
5290,1,worst,zgdokpevf,1,Catch,1222,0,A28J4SW0GG4II3,33,3,,0
5291,1,GB,swokp,0,Test,1958,0,A28J4SW0GG4II3,34,3,o,0
5292,0,GG,skreff,0,Test,1940,1,A28J4SW0GG4II3,35,3,e,1
5293,1,BB,vlemth,1,Test,1493,0,A28J4SW0GG4II3,36,3,e,1
5294,1,best,frotion,1,Catch,1787,1,A28J4SW0GG4II3,37,3,,0
5295,1,BB,shnuthp,1,Test,2087,0,A28J4SW0GG4II3,38,3,u,1
5349,1,BB,thmathf,1,Test,10159,0,A29PB2C8XD8TVG,3,1,a,1
5350,1,best,bressic,1,Catch,10517,1,A29PB2C8XD8TVG,4,1,,1
5351,0,GG,gloo,0,Test,4767,1,A29PB2C8XD8TVG,5,1,oo,0
5352,1,BB,shpishk,1,Test,3566,0,A29PB2C8XD8TVG,6,1,i,1
5353,1,GB,trusf,0,Test,4385,0,A29PB2C8XD8TVG,7,1,u,0
5354,0,GG,froom,0,Test,3405,1,A29PB2C8XD8TVG,8,1,oo,0
5355,1,GB,flepk,0,Test,3695,0,A29PB2C8XD8TVG,9,1,e,0
5356,1,worst,kflisgwevr,1,Catch,2498,0,A29PB2C8XD8TVG,10,1,,0
5357,1,BB,thnathf,1,Test,3216,0,A29PB2C8XD8TVG,11,1,a,1
5358,1,best,merly,1,Catch,2207,1,A29PB2C8XD8TVG,12,1,,1
5359,0,GG,thrit,0,Test,4082,1,A29PB2C8XD8TVG,13,1,i,0
5360,1,best,claffer,1,Catch,3278,1,A29PB2C8XD8TVG,14,1,,0
5361,0,BG,zmen,1,Test,2330,1,A29PB2C8XD8TVG,15,1,e,1
5362,1,worst,zgdokpevf,1,Catch,3714,0,A29PB2C8XD8TVG,16,1,,1
5363,1,best,dellous,1,Catch,3033,1,A29PB2C8XD8TVG,17,1,,0
5364,0,BG,hrul,1,Test,1747,0,A29PB2C8XD8TVG,18,1,u,1
5365,0,BG,shpeff,1,Test,2579,0,A29PB2C8XD8TVG,19,1,e,0
5366,1,BB,shtithp,1,Test,2189,0,A29PB2C8XD8TVG,20,1,i,0
5367,1,GB,skuthp,0,Test,1838,0,A29PB2C8XD8TVG,21,1,u,1
5368,0,GG,blom,0,Test,4451,1,A29PB2C8XD8TVG,22,1,o,0
5369,1,worst,wlratlumr,1,Catch,3541,0,A29PB2C8XD8TVG,23,1,,0
5370,1,GB,prad,0,Test,3004,0,A29PB2C8XD8TVG,24,1,a,1
5371,1,worst,tmuhriz,1,Catch,1692,0,A29PB2C8XD8TVG,25,1,,1
5372,1,worst,lbafthrizk,1,Catch,1251,0,A29PB2C8XD8TVG,26,1,,1
5373,0,BG,shlock,1,Test,2081,1,A29PB2C8XD8TVG,27,1,o,1
5374,1,GB,brafsh,0,Test,3585,1,A29PB2C8XD8TVG,28,1,a,1
5375,1,worst,psafzotrl,1,Catch,1667,0,A29PB2C8XD8TVG,29,1,,1
5376,1,best,spellion,1,Catch,1924,1,A29PB2C8XD8TVG,30,1,,1
5377,1,BB,shtopk,1,Test,3388,0,A29PB2C8XD8TVG,31,1,o,0
5378,1,best,frotion,1,Catch,2515,1,A29PB2C8XD8TVG,32,1,,1
5379,0,BG,thnoop,1,Test,5138,0,A29PB2C8XD8TVG,33,1,oo,0
5380,0,BG,dlood,1,Test,3084,1,A29PB2C8XD8TVG,34,1,oo,1
5381,0,GG,krizz,0,Test,2466,1,A29PB2C8XD8TVG,35,1,i,0
5382,1,GB,slemth,0,Test,3068,1,A29PB2C8XD8TVG,36,1,e,1
5383,1,BB,shlokp,1,Test,2588,0,A29PB2C8XD8TVG,37,1,o,0
5384,0,GG,shrell,0,Test,1461,1,A29PB2C8XD8TVG,38,1,e,0
5475,0,GG,drass,0,Test,6125,1,A2BWXSPIQB0Z0M,3,2,a,0
5476,1,best,dellous,1,Catch,4279,1,A2BWXSPIQB0Z0M,4,2,,1
5477,0,BG,vle,1,Test,2572,0,A2BWXSPIQB0Z0M,5,2,e,1
5478,1,GB,krishp,0,Test,5044,0,A2BWXSPIQB0Z0M,6,2,i,0
5479,0,GG,grot,0,Test,2772,1,A2BWXSPIQB0Z0M,7,2,o,1
5480,1,worst,kflisgwevr,1,Catch,2148,0,A2BWXSPIQB0Z0M,8,2,,1
5481,0,BG,vlack,1,Test,3572,0,A2BWXSPIQB0Z0M,9,2,a,1
5482,1,best,merly,1,Catch,2316,1,A2BWXSPIQB0Z0M,10,2,,0
5483,0,GG,swod,0,Test,1980,1,A2BWXSPIQB0Z0M,11,2,o,0
5484,1,BB,shpefsh,1,Test,2892,0,A2BWXSPIQB0Z0M,12,2,e,0
5485,1,best,bressic,1,Catch,2364,1,A2BWXSPIQB0Z0M,13,2,,1
5486,0,BG,zmaz,1,Test,1579,0,A2BWXSPIQB0Z0M,14,2,a,1
5487,0,BG,lrug,1,Test,1828,0,A2BWXSPIQB0Z0M,15,2,u,1
5488,1,best,claffer,1,Catch,1852,1,A2BWXSPIQB0Z0M,16,2,,0
5489,0,GG,stip,0,Test,2204,1,A2BWXSPIQB0Z0M,17,2,i,0
5490,1,worst,wlratlumr,1,Catch,2260,0,A2BWXSPIQB0Z0M,18,2,,1
5491,1,BB,hrutp,1,Test,2124,0,A2BWXSPIQB0Z0M,19,2,u,0
5492,1,BB,thnoothk,1,Test,2252,0,A2BWXSPIQB0Z0M,20,2,oo,0
5493,0,GG,striff,0,Test,1732,1,A2BWXSPIQB0Z0M,21,2,i,1
5494,1,GB,shrethk,0,Test,2484,0,A2BWXSPIQB0Z0M,22,2,e,1
5495,0,BG,shnun,1,Test,2460,0,A2BWXSPIQB0Z0M,23,2,u,0
5496,1,BB,zmemth,1,Test,1860,0,A2BWXSPIQB0Z0M,24,2,e,1
5497,0,GG,snass,0,Test,1580,1,A2BWXSPIQB0Z0M,25,2,a,0
5498,1,best,spellion,1,Catch,1460,1,A2BWXSPIQB0Z0M,26,2,,0
5499,1,worst,lbafthrizk,1,Catch,1828,0,A2BWXSPIQB0Z0M,27,2,,1
5500,1,GB,blod,0,Test,2316,0,A2BWXSPIQB0Z0M,28,2,o,1
5501,1,GB,gloosf,0,Test,1747,0,A2BWXSPIQB0Z0M,29,2,oo,1
5502,1,worst,psafzotrl,1,Catch,1852,0,A2BWXSPIQB0Z0M,30,2,,0
5503,1,best,frotion,1,Catch,1772,1,A2BWXSPIQB0Z0M,31,2,,1
5504,1,BB,shlokp,1,Test,1597,0,A2BWXSPIQB0Z0M,32,2,o,1
5505,0,BG,thmeg,1,Test,2292,0,A2BWXSPIQB0Z0M,33,2,e,0
5506,1,worst,zgdokpevf,1,Catch,1684,0,A2BWXSPIQB0Z0M,34,2,,1
5507,1,GB,thrishk,0,Test,2293,0,A2BWXSPIQB0Z0M,35,2,i,1
5508,1,BB,dlooshp,1,Test,1637,0,A2BWXSPIQB0Z0M,36,2,oo,1
5509,1,worst,tmuhriz,1,Catch,1693,0,A2BWXSPIQB0Z0M,37,2,,0
5510,1,GB,frootp,0,Test,1676,0,A2BWXSPIQB0Z0M,38,2,oo,0
5594,0,GG,fleg,0,Test,4841,1,A2DAEM674ZDADH,3,0,e,0
5595,0,BG,shpiff,1,Test,1137,1,A2DAEM674ZDADH,4,0,i,1
5596,0,BG,shtot,1,Test,1516,1,A2DAEM674ZDADH,5,0,o,1
5597,0,GG,trug,0,Test,997,1,A2DAEM674ZDADH,6,0,u,0
5598,1,BB,hrootp,1,Test,885,0,A2DAEM674ZDADH,7,0,oo,0
5599,0,BG,shtip,1,Test,1069,0,A2DAEM674ZDADH,8,0,i,0
5600,1,BB,thlod,1,Test,893,0,A2DAEM674ZDADH,9,0,o,0
5601,1,BB,thlishp,1,Test,1343,1,A2DAEM674ZDADH,10,0,i,1
5602,1,GB,spooshp,0,Test,1277,0,A2DAEM674ZDADH,11,0,oo,1
5603,1,worst,wlratlumr,1,Catch,933,1,A2DAEM674ZDADH,12,0,,1
5604,1,BB,lrishk,1,Test,1493,1,A2DAEM674ZDADH,13,0,i,1
5605,1,GB,plemth,0,Test,988,1,A2DAEM674ZDADH,14,0,e,0
5606,0,BG,thnass,1,Test,1301,0,A2DAEM674ZDADH,15,0,a,1
5607,0,GG,brack,0,Test,981,0,A2DAEM674ZDADH,16,0,a,1
5608,1,GB,skrefsh,0,Test,957,0,A2DAEM674ZDADH,17,0,e,0
5609,1,worst,zgdokpevf,1,Catch,741,1,A2DAEM674ZDADH,18,0,,1
5610,0,GG,praz,0,Test,1245,1,A2DAEM674ZDADH,19,0,a,0
5611,1,best,merly,1,Catch,909,0,A2DAEM674ZDADH,20,0,,1
5612,1,worst,tmuhriz,1,Catch,1021,0,A2DAEM674ZDADH,21,0,,0
5613,1,best,frotion,1,Catch,869,0,A2DAEM674ZDADH,22,0,,1
5614,1,worst,lbafthrizk,1,Catch,925,0,A2DAEM674ZDADH,23,0,,0
5615,0,GG,sle,0,Test,893,1,A2DAEM674ZDADH,24,0,e,0
5616,1,worst,kflisgwevr,1,Catch,766,0,A2DAEM674ZDADH,25,0,,0
5617,0,GG,skun,0,Test,917,1,A2DAEM674ZDADH,26,0,u,0
5618,1,best,dellous,1,Catch,782,1,A2DAEM674ZDADH,27,0,,0
5619,1,BB,shnethk,1,Test,958,0,A2DAEM674ZDADH,28,0,e,0
5620,1,BB,dloosf,1,Test,1383,1,A2DAEM674ZDADH,29,0,oo,1
5621,1,worst,psafzotrl,1,Catch,734,0,A2DAEM674ZDADH,30,0,,0
5622,1,best,bressic,1,Catch,1014,0,A2DAEM674ZDADH,31,0,,1
5623,0,BG,thmass,1,Test,726,1,A2DAEM674ZDADH,32,0,a,0
5624,1,best,spellion,1,Catch,934,0,A2DAEM674ZDADH,33,0,,1
5625,1,GB,splokp,0,Test,893,0,A2DAEM674ZDADH,34,0,o,0
5626,1,GB,smutp,0,Test,1038,1,A2DAEM674ZDADH,35,0,u,1
5627,0,BG,shlod,1,Test,1078,1,A2DAEM674ZDADH,36,0,o,0
5628,1,GB,kloothk,0,Test,758,1,A2DAEM674ZDADH,37,0,oo,1
5629,1,best,claffer,1,Catch,1102,0,A2DAEM674ZDADH,38,0,,1
5808,1,BB,shpishk,1,Test,121251,0,A2EOJQDLBOYD6O,3,1,i,1
5809,1,best,dellous,1,Catch,5819,1,A2EOJQDLBOYD6O,4,1,,1
5810,1,worst,zgdokpevf,1,Catch,1860,0,A2EOJQDLBOYD6O,5,1,,1
5811,1,BB,shtopk,1,Test,7417,0,A2EOJQDLBOYD6O,6,1,o,0
5812,0,BG,shpeff,1,Test,5789,0,A2EOJQDLBOYD6O,7,1,e,1
5813,1,BB,thmathf,1,Test,3422,0,A2EOJQDLBOYD6O,8,1,a,0
5814,1,BB,shtithp,1,Test,4057,0,A2EOJQDLBOYD6O,9,1,i,1
5815,0,GG,krizz,0,Test,3276,1,A2EOJQDLBOYD6O,10,1,i,0
5816,0,GG,gloo,0,Test,2832,1,A2EOJQDLBOYD6O,11,1,oo,1
5817,1,worst,wlratlumr,1,Catch,9263,0,A2EOJQDLBOYD6O,12,1,,1
5818,1,GB,brafsh,0,Test,7059,1,A2EOJQDLBOYD6O,13,1,a,0
5819,1,best,spellion,1,Catch,2538,1,A2EOJQDLBOYD6O,14,1,,0
5820,1,BB,thnathf,1,Test,3905,0,A2EOJQDLBOYD6O,15,1,a,1
5821,1,best,bressic,1,Catch,2109,1,A2EOJQDLBOYD6O,16,1,,0
5822,0,BG,shlock,1,Test,4529,1,A2EOJQDLBOYD6O,17,1,o,1
5823,0,BG,hrul,1,Test,6410,1,A2EOJQDLBOYD6O,18,1,u,1
5824,0,GG,blom,0,Test,3075,1,A2EOJQDLBOYD6O,19,1,o,1
5825,1,worst,kflisgwevr,1,Catch,2897,0,A2EOJQDLBOYD6O,20,1,,1
5826,0,GG,thrit,0,Test,2477,1,A2EOJQDLBOYD6O,21,1,i,0
5827,1,GB,skuthp,0,Test,3192,0,A2EOJQDLBOYD6O,22,1,u,0
5828,0,GG,shrell,0,Test,1664,1,A2EOJQDLBOYD6O,23,1,e,0
5829,1,best,claffer,1,Catch,1605,1,A2EOJQDLBOYD6O,24,1,,1
5830,1,best,merly,1,Catch,2413,1,A2EOJQDLBOYD6O,25,1,,0
5831,1,GB,prad,0,Test,5008,0,A2EOJQDLBOYD6O,26,1,a,0
5832,1,worst,tmuhriz,1,Catch,1969,0,A2EOJQDLBOYD6O,27,1,,1
5833,1,best,frotion,1,Catch,3323,1,A2EOJQDLBOYD6O,28,1,,0
5834,0,GG,froom,0,Test,1561,1,A2EOJQDLBOYD6O,29,1,oo,1
5835,0,BG,zmen,1,Test,8804,0,A2EOJQDLBOYD6O,30,1,e,0
5836,1,worst,psafzotrl,1,Catch,3888,0,A2EOJQDLBOYD6O,31,1,,1
5837,1,BB,shlokp,1,Test,3179,0,A2EOJQDLBOYD6O,32,1,o,0
5838,0,BG,dlood,1,Test,5296,0,A2EOJQDLBOYD6O,33,1,oo,0
5839,0,BG,thnoop,1,Test,2861,0,A2EOJQDLBOYD6O,34,1,oo,1
5840,1,GB,trusf,0,Test,2832,1,A2EOJQDLBOYD6O,35,1,u,1
5841,1,worst,lbafthrizk,1,Catch,8283,0,A2EOJQDLBOYD6O,36,1,,1
5842,1,GB,flepk,0,Test,4171,1,A2EOJQDLBOYD6O,37,1,e,0
5843,1,GB,slemth,0,Test,3799,0,A2EOJQDLBOYD6O,38,1,e,1
5853,1,GB,skuthp,0,Test,14979,0,A2EYYKGD7KCHJJ,3,1,u,0
5854,0,BG,shpeff,1,Test,2006,0,A2EYYKGD7KCHJJ,4,1,e,0
5855,1,worst,lbafthrizk,1,Catch,1534,0,A2EYYKGD7KCHJJ,5,1,,0
5856,1,worst,tmuhriz,1,Catch,6035,0,A2EYYKGD7KCHJJ,6,1,,1
5857,0,GG,thrit,0,Test,1609,1,A2EYYKGD7KCHJJ,7,1,i,0
5858,0,BG,hrul,1,Test,2532,1,A2EYYKGD7KCHJJ,8,1,u,0
5859,1,best,bressic,1,Catch,1621,1,A2EYYKGD7KCHJJ,9,1,,0
5860,0,GG,gloo,0,Test,2102,1,A2EYYKGD7KCHJJ,10,1,oo,1
5861,1,worst,kflisgwevr,1,Catch,1543,0,A2EYYKGD7KCHJJ,11,1,,1
5862,1,BB,shtithp,1,Test,2218,0,A2EYYKGD7KCHJJ,12,1,i,0
5863,1,BB,shpishk,1,Test,4594,0,A2EYYKGD7KCHJJ,13,1,i,1
5864,0,BG,shlock,1,Test,1438,1,A2EYYKGD7KCHJJ,14,1,o,0
5865,1,best,spellion,1,Catch,1593,1,A2EYYKGD7KCHJJ,15,1,,0
5866,1,best,claffer,1,Catch,1166,1,A2EYYKGD7KCHJJ,16,1,,0
5867,1,worst,zgdokpevf,1,Catch,1284,0,A2EYYKGD7KCHJJ,17,1,,0
5868,1,BB,shtopk,1,Test,1990,0,A2EYYKGD7KCHJJ,18,1,o,0
5869,1,GB,flepk,0,Test,1423,0,A2EYYKGD7KCHJJ,19,1,e,1
5870,1,best,frotion,1,Catch,2262,1,A2EYYKGD7KCHJJ,20,1,,1
5871,0,GG,blom,0,Test,1192,1,A2EYYKGD7KCHJJ,21,1,o,1
5872,1,GB,trusf,0,Test,2510,0,A2EYYKGD7KCHJJ,22,1,u,0
5873,0,GG,shrell,0,Test,1098,1,A2EYYKGD7KCHJJ,23,1,e,0
5874,0,GG,froom,0,Test,1452,1,A2EYYKGD7KCHJJ,24,1,oo,1
5875,0,BG,zmen,1,Test,1841,1,A2EYYKGD7KCHJJ,25,1,e,0
5876,1,BB,thnathf,1,Test,1494,0,A2EYYKGD7KCHJJ,26,1,a,1
5877,1,BB,shlokp,1,Test,2063,0,A2EYYKGD7KCHJJ,27,1,o,1
5878,1,BB,thmathf,1,Test,1455,0,A2EYYKGD7KCHJJ,28,1,a,1
5879,0,BG,dlood,1,Test,1537,1,A2EYYKGD7KCHJJ,29,1,oo,0
5880,0,GG,krizz,0,Test,2009,1,A2EYYKGD7KCHJJ,30,1,i,1
5881,1,best,merly,1,Catch,1664,1,A2EYYKGD7KCHJJ,31,1,,1
5882,1,GB,slemth,0,Test,3007,0,A2EYYKGD7KCHJJ,32,1,e,0
5883,1,worst,wlratlumr,1,Catch,1582,0,A2EYYKGD7KCHJJ,33,1,,1
5884,1,best,dellous,1,Catch,1046,1,A2EYYKGD7KCHJJ,34,1,,1
5885,1,GB,prad,0,Test,1362,0,A2EYYKGD7KCHJJ,35,1,a,0
5886,1,GB,brafsh,0,Test,1593,1,A2EYYKGD7KCHJJ,36,1,a,1
5887,0,BG,thnoop,1,Test,1339,0,A2EYYKGD7KCHJJ,37,1,oo,0
5888,1,worst,psafzotrl,1,Catch,1291,0,A2EYYKGD7KCHJJ,38,1,,1
6104,1,best,merly,1,Catch,15480,0,A2HCX55SX2NP1V,3,2,,1
6105,1,GB,blod,0,Test,4406,0,A2HCX55SX2NP1V,4,2,o,1
6106,0,GG,snass,0,Test,1551,0,A2HCX55SX2NP1V,5,2,a,1
6107,1,BB,thnoothk,1,Test,1504,0,A2HCX55SX2NP1V,6,2,oo,1
6108,1,best,bressic,1,Catch,5328,0,A2HCX55SX2NP1V,7,2,,0
6109,1,GB,gloosf,0,Test,1214,0,A2HCX55SX2NP1V,8,2,oo,0
6110,0,BG,thmeg,1,Test,2783,0,A2HCX55SX2NP1V,9,2,e,1
6111,0,BG,shnun,1,Test,2721,0,A2HCX55SX2NP1V,10,2,u,0
6112,1,GB,krishp,0,Test,1608,0,A2HCX55SX2NP1V,11,2,i,0
6113,0,GG,swod,0,Test,2255,0,A2HCX55SX2NP1V,12,2,o,1
6114,1,GB,thrishk,0,Test,1730,0,A2HCX55SX2NP1V,13,2,i,0
6115,0,GG,stip,0,Test,2007,1,A2HCX55SX2NP1V,14,2,i,0
6116,1,BB,dlooshp,1,Test,1250,0,A2HCX55SX2NP1V,15,2,oo,0
6117,0,BG,vlack,1,Test,1985,0,A2HCX55SX2NP1V,16,2,a,1
6118,1,GB,frootp,0,Test,2888,0,A2HCX55SX2NP1V,17,2,oo,1
6119,1,BB,shpefsh,1,Test,1514,0,A2HCX55SX2NP1V,18,2,e,1
6120,1,BB,hrutp,1,Test,1586,0,A2HCX55SX2NP1V,19,2,u,0
6121,1,BB,shlokp,1,Test,1449,0,A2HCX55SX2NP1V,20,2,o,1
6122,1,GB,shrethk,0,Test,1417,0,A2HCX55SX2NP1V,21,2,e,1
6123,1,best,claffer,1,Catch,1834,1,A2HCX55SX2NP1V,22,2,,1
6124,0,BG,zmaz,1,Test,1346,0,A2HCX55SX2NP1V,23,2,a,1
6125,1,worst,lbafthrizk,1,Catch,1550,0,A2HCX55SX2NP1V,24,2,,0
6126,1,best,dellous,1,Catch,2170,1,A2HCX55SX2NP1V,25,2,,0
6127,0,GG,striff,0,Test,1546,1,A2HCX55SX2NP1V,26,2,i,0
6128,0,GG,drass,0,Test,1586,1,A2HCX55SX2NP1V,27,2,a,0
6129,1,worst,tmuhriz,1,Catch,2282,0,A2HCX55SX2NP1V,28,2,,1
6130,1,worst,kflisgwevr,1,Catch,2516,0,A2HCX55SX2NP1V,29,2,,0
6131,1,worst,psafzotrl,1,Catch,2066,0,A2HCX55SX2NP1V,30,2,,1
6132,1,worst,wlratlumr,1,Catch,1466,0,A2HCX55SX2NP1V,31,2,,1
6133,1,best,spellion,1,Catch,2626,1,A2HCX55SX2NP1V,32,2,,0
6134,1,worst,zgdokpevf,1,Catch,1937,0,A2HCX55SX2NP1V,33,2,,1
6135,0,BG,lrug,1,Test,2073,0,A2HCX55SX2NP1V,34,2,u,0
6136,1,best,frotion,1,Catch,1849,1,A2HCX55SX2NP1V,35,2,,0
6137,0,BG,vle,1,Test,1858,0,A2HCX55SX2NP1V,36,2,e,1
6138,1,BB,zmemth,1,Test,2989,0,A2HCX55SX2NP1V,37,2,e,1
6139,0,GG,grot,0,Test,2162,1,A2HCX55SX2NP1V,38,2,o,0
6193,1,GB,flepk,0,Test,4869,0,A2J4E9W59N3GGG,3,1,e,0
6194,1,BB,thmathf,1,Test,2288,0,A2J4E9W59N3GGG,4,1,a,0
6195,0,GG,shrell,0,Test,3534,0,A2J4E9W59N3GGG,5,1,e,1
6196,0,BG,zmen,1,Test,7612,0,A2J4E9W59N3GGG,6,1,e,0
6197,1,BB,shtithp,1,Test,4486,0,A2J4E9W59N3GGG,7,1,i,0
6198,0,GG,thrit,0,Test,2183,1,A2J4E9W59N3GGG,8,1,i,0
6199,1,GB,prad,0,Test,6367,0,A2J4E9W59N3GGG,9,1,a,1
6200,1,best,bressic,1,Catch,4146,1,A2J4E9W59N3GGG,10,1,,1
6201,0,GG,froom,0,Test,2144,1,A2J4E9W59N3GGG,11,1,oo,1
6202,1,best,claffer,1,Catch,9822,0,A2J4E9W59N3GGG,12,1,,1
6203,0,GG,gloo,0,Test,3290,1,A2J4E9W59N3GGG,13,1,oo,1
6204,1,GB,slemth,0,Test,4626,0,A2J4E9W59N3GGG,14,1,e,1
6205,1,BB,thnathf,1,Test,2738,0,A2J4E9W59N3GGG,15,1,a,1
6206,1,BB,shlokp,1,Test,3401,0,A2J4E9W59N3GGG,16,1,o,0
6207,1,best,spellion,1,Catch,2884,1,A2J4E9W59N3GGG,17,1,,0
6208,0,BG,shlock,1,Test,7751,0,A2J4E9W59N3GGG,18,1,o,0
6209,1,worst,zgdokpevf,1,Catch,1614,1,A2J4E9W59N3GGG,19,1,,1
6210,1,worst,tmuhriz,1,Catch,4635,0,A2J4E9W59N3GGG,20,1,,0
6211,1,worst,wlratlumr,1,Catch,2791,0,A2J4E9W59N3GGG,21,1,,1
6212,1,worst,kflisgwevr,1,Catch,1622,0,A2J4E9W59N3GGG,22,1,,1
6213,0,BG,thnoop,1,Test,6128,0,A2J4E9W59N3GGG,23,1,oo,0
6214,1,best,merly,1,Catch,3280,1,A2J4E9W59N3GGG,24,1,,1
6215,0,BG,dlood,1,Test,4295,0,A2J4E9W59N3GGG,25,1,oo,1
6216,1,GB,skuthp,0,Test,3105,0,A2J4E9W59N3GGG,26,1,u,0
6217,1,best,frotion,1,Catch,3015,1,A2J4E9W59N3GGG,27,1,,0
6218,0,GG,krizz,0,Test,2006,1,A2J4E9W59N3GGG,28,1,i,0
6219,0,BG,shpeff,1,Test,3025,0,A2J4E9W59N3GGG,29,1,e,1
6220,1,worst,psafzotrl,1,Catch,2531,0,A2J4E9W59N3GGG,30,1,,1
6221,0,GG,blom,0,Test,1932,1,A2J4E9W59N3GGG,31,1,o,1
6222,0,BG,hrul,1,Test,2264,0,A2J4E9W59N3GGG,32,1,u,1
6223,1,best,dellous,1,Catch,1894,1,A2J4E9W59N3GGG,33,1,,0
6224,1,GB,trusf,0,Test,2476,0,A2J4E9W59N3GGG,34,1,u,0
6225,1,BB,shtopk,1,Test,3119,0,A2J4E9W59N3GGG,35,1,o,1
6226,1,BB,shpishk,1,Test,2847,0,A2J4E9W59N3GGG,36,1,i,1
6227,1,GB,brafsh,0,Test,3378,0,A2J4E9W59N3GGG,37,1,a,0
6228,1,worst,lbafthrizk,1,Catch,1698,0,A2J4E9W59N3GGG,38,1,,0
6435,0,BG,lrit,1,Test,8403,0,A2MVVY1KMW999,3,3,i,1
6436,1,best,dellous,1,Catch,5263,1,A2MVVY1KMW999,4,3,,0
6437,0,GG,plen,0,Test,1931,1,A2MVVY1KMW999,5,3,e,1
6438,0,GG,spood,0,Test,1882,1,A2MVVY1KMW999,6,3,oo,0
6439,1,worst,wlratlumr,1,Catch,1931,0,A2MVVY1KMW999,7,3,,0
6440,1,worst,tmuhriz,1,Catch,1388,0,A2MVVY1KMW999,8,3,,0
6441,1,worst,lbafthrizk,1,Catch,1371,0,A2MVVY1KMW999,9,3,,0
6442,0,GG,smul,0,Test,2602,1,A2MVVY1KMW999,10,3,u,1
6443,1,best,merly,1,Catch,1915,1,A2MVVY1KMW999,11,3,,0
6444,1,BB,vlafsh,1,Test,1785,0,A2MVVY1KMW999,12,3,a,1
6445,0,BG,thlom,1,Test,2315,0,A2MVVY1KMW999,13,3,o,1
6446,0,GG,skreff,0,Test,1885,1,A2MVVY1KMW999,14,3,e,0
6447,1,BB,vlemth,1,Test,2331,0,A2MVVY1KMW999,15,3,e,1
6448,1,BB,shnuthp,1,Test,1789,0,A2MVVY1KMW999,16,3,u,1
6449,1,best,claffer,1,Catch,2075,1,A2MVVY1KMW999,17,3,,1
6450,1,worst,psafzotrl,1,Catch,1292,1,A2MVVY1KMW999,18,3,,0
6451,0,BG,thlizz,1,Test,1899,0,A2MVVY1KMW999,19,3,i,0
6452,1,worst,zgdokpevf,1,Catch,1722,0,A2MVVY1KMW999,20,3,,0
6453,1,GB,snathf,0,Test,3723,1,A2MVVY1KMW999,21,3,a,0
6454,1,GB,drathf,0,Test,2059,1,A2MVVY1KMW999,22,3,a,1
6455,1,best,frotion,1,Catch,1804,1,A2MVVY1KMW999,23,3,,1
6456,1,GB,strishk,0,Test,2152,0,A2MVVY1KMW999,24,3,i,0
6457,0,BG,dloo,1,Test,1692,1,A2MVVY1KMW999,25,3,oo,1
6458,1,best,bressic,1,Catch,1596,1,A2MVVY1KMW999,26,3,,0
6459,1,worst,kflisgwevr,1,Catch,1676,0,A2MVVY1KMW999,27,3,,1
6460,1,GB,stithp,0,Test,1948,0,A2MVVY1KMW999,28,3,i,1
6461,1,GB,gropk,0,Test,2283,1,A2MVVY1KMW999,29,3,o,0
6462,1,BB,zmad,1,Test,1515,0,A2MVVY1KMW999,30,3,a,0
6463,0,BG,hroom,1,Test,2091,1,A2MVVY1KMW999,31,3,oo,1
6464,0,BG,shnell,1,Test,1804,1,A2MVVY1KMW999,32,3,e,1
6465,1,GB,swokp,0,Test,2412,0,A2MVVY1KMW999,33,3,o,1
6466,1,best,spellion,1,Catch,1885,1,A2MVVY1KMW999,34,3,,0
6467,1,BB,thmepk,1,Test,1547,0,A2MVVY1KMW999,35,3,e,0
6468,0,GG,splock,0,Test,1483,1,A2MVVY1KMW999,36,3,o,0
6469,0,GG,kloop,0,Test,1625,1,A2MVVY1KMW999,37,3,oo,0
6470,1,BB,lrusf,1,Test,1750,0,A2MVVY1KMW999,38,3,u,1
6686,0,GG,spood,0,Test,3470,1,A2QCDKTLMY4P48,3,3,oo,0
6687,1,GB,drathf,0,Test,4520,0,A2QCDKTLMY4P48,4,3,a,1
6688,1,worst,tmuhriz,1,Catch,3982,0,A2QCDKTLMY4P48,5,3,,1
6689,1,worst,kflisgwevr,1,Catch,3424,0,A2QCDKTLMY4P48,6,3,,1
6690,0,GG,plen,0,Test,2010,1,A2QCDKTLMY4P48,7,3,e,0
6691,1,best,spellion,1,Catch,1989,1,A2QCDKTLMY4P48,8,3,,0
6692,1,best,claffer,1,Catch,1334,1,A2QCDKTLMY4P48,9,3,,0
6693,0,GG,kloop,0,Test,1783,1,A2QCDKTLMY4P48,10,3,oo,0
6694,0,BG,dloo,1,Test,2313,0,A2QCDKTLMY4P48,11,3,oo,0
6695,0,BG,lrit,1,Test,4030,0,A2QCDKTLMY4P48,12,3,i,1
6696,1,GB,swokp,0,Test,1824,0,A2QCDKTLMY4P48,13,3,o,1
6697,1,best,bressic,1,Catch,4876,1,A2QCDKTLMY4P48,14,3,,1
6698,1,GB,strishk,0,Test,3072,0,A2QCDKTLMY4P48,15,3,i,0
6699,1,GB,stithp,0,Test,2294,0,A2QCDKTLMY4P48,16,3,i,1
6700,1,BB,vlemth,1,Test,2214,0,A2QCDKTLMY4P48,17,3,e,0
6701,1,best,merly,1,Catch,1779,1,A2QCDKTLMY4P48,18,3,,0
6702,1,worst,zgdokpevf,1,Catch,1821,0,A2QCDKTLMY4P48,19,3,,0
6703,0,BG,shnell,1,Test,2559,1,A2QCDKTLMY4P48,20,3,e,1
6704,1,best,dellous,1,Catch,1766,1,A2QCDKTLMY4P48,21,3,,0
6705,1,GB,snathf,0,Test,2516,0,A2QCDKTLMY4P48,22,3,a,0
6706,1,worst,psafzotrl,1,Catch,1856,0,A2QCDKTLMY4P48,23,3,,0
6707,1,BB,shnuthp,1,Test,2839,0,A2QCDKTLMY4P48,24,3,u,0
6708,1,BB,zmad,1,Test,1485,0,A2QCDKTLMY4P48,25,3,a,0
6709,1,GB,gropk,0,Test,1330,0,A2QCDKTLMY4P48,26,3,o,0
6710,0,GG,skreff,0,Test,1569,1,A2QCDKTLMY4P48,27,3,e,0
6711,0,GG,splock,0,Test,2487,1,A2QCDKTLMY4P48,28,3,o,1
6712,1,worst,lbafthrizk,1,Catch,2053,0,A2QCDKTLMY4P48,29,3,,0
6713,1,best,frotion,1,Catch,2159,1,A2QCDKTLMY4P48,30,3,,1
6714,0,BG,thlom,1,Test,2715,0,A2QCDKTLMY4P48,31,3,o,1
6715,1,worst,wlratlumr,1,Catch,1972,0,A2QCDKTLMY4P48,32,3,,0
6716,0,BG,hroom,1,Test,3842,1,A2QCDKTLMY4P48,33,3,oo,1
6717,1,BB,vlafsh,1,Test,2407,0,A2QCDKTLMY4P48,34,3,a,0
6718,1,BB,lrusf,1,Test,3586,0,A2QCDKTLMY4P48,35,3,u,0
6719,1,BB,thmepk,1,Test,3047,0,A2QCDKTLMY4P48,36,3,e,0
6720,0,GG,smul,0,Test,2408,1,A2QCDKTLMY4P48,37,3,u,0
6721,0,BG,thlizz,1,Test,2814,0,A2QCDKTLMY4P48,38,3,i,1
7046,0,GG,kloop,0,Test,3742,1,A2SF81K4E0MI3Z,3,3,oo,1
7047,0,GG,spood,0,Test,1530,1,A2SF81K4E0MI3Z,4,3,oo,1
7048,0,BG,lrit,1,Test,2269,1,A2SF81K4E0MI3Z,5,3,i,0
7049,1,BB,shnuthp,1,Test,1340,0,A2SF81K4E0MI3Z,6,3,u,0
7050,1,best,bressic,1,Catch,2710,1,A2SF81K4E0MI3Z,7,3,,0
7051,1,GB,gropk,0,Test,3016,0,A2SF81K4E0MI3Z,8,3,o,1
7052,1,best,frotion,1,Catch,1292,1,A2SF81K4E0MI3Z,9,3,,1
7053,1,worst,wlratlumr,1,Catch,1294,0,A2SF81K4E0MI3Z,10,3,,1
7054,0,BG,thlom,1,Test,1785,1,A2SF81K4E0MI3Z,11,3,o,0
7055,1,worst,lbafthrizk,1,Catch,1561,0,A2SF81K4E0MI3Z,12,3,,1
7056,0,BG,shnell,1,Test,1563,1,A2SF81K4E0MI3Z,13,3,e,0
7057,1,worst,kflisgwevr,1,Catch,1627,0,A2SF81K4E0MI3Z,14,3,,1
7058,0,BG,thlizz,1,Test,3620,0,A2SF81K4E0MI3Z,15,3,i,0
7059,0,BG,hroom,1,Test,3354,0,A2SF81K4E0MI3Z,16,3,oo,1
7060,1,BB,lrusf,1,Test,2340,0,A2SF81K4E0MI3Z,17,3,u,0
7061,1,GB,drathf,0,Test,1787,0,A2SF81K4E0MI3Z,18,3,a,1
7062,1,BB,zmad,1,Test,1936,0,A2SF81K4E0MI3Z,19,3,a,1
7063,1,best,dellous,1,Catch,1174,1,A2SF81K4E0MI3Z,20,3,,1
7064,1,BB,vlafsh,1,Test,1558,0,A2SF81K4E0MI3Z,21,3,a,0
7065,0,GG,skreff,0,Test,1385,1,A2SF81K4E0MI3Z,22,3,e,0
7066,0,GG,smul,0,Test,1493,1,A2SF81K4E0MI3Z,23,3,u,0
7067,1,worst,zgdokpevf,1,Catch,1208,0,A2SF81K4E0MI3Z,24,3,,0
7068,0,BG,dloo,1,Test,1783,0,A2SF81K4E0MI3Z,25,3,oo,1
7069,1,best,merly,1,Catch,1649,1,A2SF81K4E0MI3Z,26,3,,0
7070,1,best,spellion,1,Catch,1276,1,A2SF81K4E0MI3Z,27,3,,0
7071,0,GG,splock,0,Test,1575,1,A2SF81K4E0MI3Z,28,3,o,1
7072,1,worst,tmuhriz,1,Catch,1579,1,A2SF81K4E0MI3Z,29,3,,0
7073,1,BB,thmepk,1,Test,2207,0,A2SF81K4E0MI3Z,30,3,e,0
7074,1,GB,swokp,0,Test,2649,0,A2SF81K4E0MI3Z,31,3,o,0
7075,0,GG,plen,0,Test,1814,1,A2SF81K4E0MI3Z,32,3,e,0
7076,1,best,claffer,1,Catch,1576,1,A2SF81K4E0MI3Z,33,3,,1
7077,1,worst,psafzotrl,1,Catch,2170,0,A2SF81K4E0MI3Z,34,3,,0
7078,1,GB,snathf,0,Test,1593,0,A2SF81K4E0MI3Z,35,3,a,1
7079,1,GB,stithp,0,Test,3774,0,A2SF81K4E0MI3Z,36,3,i,1
7080,1,GB,strishk,0,Test,1402,0,A2SF81K4E0MI3Z,37,3,i,0
7081,1,BB,vlemth,1,Test,1590,0,A2SF81K4E0MI3Z,38,3,e,0
7165,1,best,spellion,1,Catch,5903,1,A2T2EFKEXL11M9,3,3,,0
7166,1,worst,lbafthrizk,1,Catch,3496,0,A2T2EFKEXL11M9,4,3,,0
7167,0,BG,hroom,1,Test,4732,1,A2T2EFKEXL11M9,5,3,oo,1
7168,0,GG,smul,0,Test,3049,0,A2T2EFKEXL11M9,6,3,u,0
7169,1,best,merly,1,Catch,2358,1,A2T2EFKEXL11M9,7,3,,0
7170,1,GB,gropk,0,Test,2525,0,A2T2EFKEXL11M9,8,3,o,1
7171,1,best,bressic,1,Catch,8147,0,A2T2EFKEXL11M9,9,3,,0
7172,0,GG,splock,0,Test,2588,1,A2T2EFKEXL11M9,10,3,o,1
7173,0,BG,lrit,1,Test,3055,0,A2T2EFKEXL11M9,11,3,i,1
7174,1,best,frotion,1,Catch,2614,1,A2T2EFKEXL11M9,12,3,,1
7175,1,BB,shnuthp,1,Test,4904,0,A2T2EFKEXL11M9,13,3,u,0
7176,1,BB,zmad,1,Test,3991,0,A2T2EFKEXL11M9,14,3,a,0
7177,0,GG,kloop,0,Test,2168,1,A2T2EFKEXL11M9,15,3,oo,0
7178,1,worst,wlratlumr,1,Catch,1665,0,A2T2EFKEXL11M9,16,3,,0
7179,0,BG,thlom,1,Test,2019,1,A2T2EFKEXL11M9,17,3,o,1
7180,0,BG,shnell,1,Test,2166,1,A2T2EFKEXL11M9,18,3,e,0
7181,0,BG,thlizz,1,Test,3104,1,A2T2EFKEXL11M9,19,3,i,0
7182,1,GB,strishk,0,Test,1790,0,A2T2EFKEXL11M9,20,3,i,1
7183,0,BG,dloo,1,Test,2480,0,A2T2EFKEXL11M9,21,3,oo,0
7184,1,GB,swokp,0,Test,1427,0,A2T2EFKEXL11M9,22,3,o,1
7185,1,BB,vlafsh,1,Test,1544,0,A2T2EFKEXL11M9,23,3,a,0
7186,0,GG,plen,0,Test,2051,1,A2T2EFKEXL11M9,24,3,e,1
7187,1,BB,thmepk,1,Test,4733,0,A2T2EFKEXL11M9,25,3,e,1
7188,1,worst,zgdokpevf,1,Catch,1614,0,A2T2EFKEXL11M9,26,3,,0
7189,1,GB,snathf,0,Test,3131,1,A2T2EFKEXL11M9,27,3,a,1
7190,1,BB,lrusf,1,Test,1517,0,A2T2EFKEXL11M9,28,3,u,1
7191,1,GB,stithp,0,Test,2803,0,A2T2EFKEXL11M9,29,3,i,0
7192,1,worst,tmuhriz,1,Catch,1693,0,A2T2EFKEXL11M9,30,3,,0
7193,1,best,dellous,1,Catch,1333,1,A2T2EFKEXL11M9,31,3,,0
7194,0,GG,spood,0,Test,1611,1,A2T2EFKEXL11M9,32,3,oo,1
7195,1,GB,drathf,0,Test,1259,0,A2T2EFKEXL11M9,33,3,a,1
7196,1,worst,psafzotrl,1,Catch,1517,0,A2T2EFKEXL11M9,34,3,,0
7197,0,GG,skreff,0,Test,3131,1,A2T2EFKEXL11M9,35,3,e,0
7198,1,worst,kflisgwevr,1,Catch,1186,0,A2T2EFKEXL11M9,36,3,,1
7199,1,best,claffer,1,Catch,1451,1,A2T2EFKEXL11M9,37,3,,0
7200,1,BB,vlemth,1,Test,1983,0,A2T2EFKEXL11M9,38,3,e,0
7210,1,worst,psafzotrl,1,Catch,6483,0,A2T7NPOJP8O5AU,3,2,,1
7211,0,GG,stip,0,Test,5170,1,A2T7NPOJP8O5AU,4,2,i,0
7212,0,BG,shnun,1,Test,6058,0,A2T7NPOJP8O5AU,5,2,u,1
7213,1,best,frotion,1,Catch,3959,1,A2T7NPOJP8O5AU,6,2,,1
7214,1,best,bressic,1,Catch,2833,1,A2T7NPOJP8O5AU,7,2,,0
7215,0,BG,lrug,1,Test,8409,0,A2T7NPOJP8O5AU,8,2,u,0
7216,1,GB,blod,0,Test,2849,0,A2T7NPOJP8O5AU,9,2,o,1
7217,1,worst,wlratlumr,1,Catch,2065,0,A2T7NPOJP8O5AU,10,2,,1
7218,0,GG,drass,0,Test,2313,1,A2T7NPOJP8O5AU,11,2,a,1
7219,0,BG,zmaz,1,Test,3072,0,A2T7NPOJP8O5AU,12,2,a,1
7220,1,worst,zgdokpevf,1,Catch,4051,0,A2T7NPOJP8O5AU,13,2,,0
7221,1,BB,shlokp,1,Test,2689,0,A2T7NPOJP8O5AU,14,2,o,0
7222,1,GB,thrishk,0,Test,3415,0,A2T7NPOJP8O5AU,15,2,i,0
7223,1,BB,shpefsh,1,Test,2328,0,A2T7NPOJP8O5AU,16,2,e,0
7224,0,BG,thmeg,1,Test,2547,1,A2T7NPOJP8O5AU,17,2,e,1
7225,1,best,spellion,1,Catch,2348,1,A2T7NPOJP8O5AU,18,2,,1
7226,0,BG,vle,1,Test,2790,1,A2T7NPOJP8O5AU,19,2,e,1
7227,1,GB,shrethk,0,Test,2967,0,A2T7NPOJP8O5AU,20,2,e,0
7228,1,GB,krishp,0,Test,2174,0,A2T7NPOJP8O5AU,21,2,i,0
7229,1,best,claffer,1,Catch,2203,1,A2T7NPOJP8O5AU,22,2,,1
7230,1,worst,kflisgwevr,1,Catch,2252,0,A2T7NPOJP8O5AU,23,2,,1
7231,1,worst,lbafthrizk,1,Catch,2430,0,A2T7NPOJP8O5AU,24,2,,0
7232,1,BB,thnoothk,1,Test,2050,0,A2T7NPOJP8O5AU,25,2,oo,1
7233,1,BB,dlooshp,1,Test,2128,0,A2T7NPOJP8O5AU,26,2,oo,1
7234,1,BB,hrutp,1,Test,2506,0,A2T7NPOJP8O5AU,27,2,u,0
7235,1,GB,frootp,0,Test,2243,0,A2T7NPOJP8O5AU,28,2,oo,1
7236,1,worst,tmuhriz,1,Catch,2300,0,A2T7NPOJP8O5AU,29,2,,0
7237,1,best,merly,1,Catch,1938,1,A2T7NPOJP8O5AU,30,2,,0
7238,0,GG,grot,0,Test,2152,1,A2T7NPOJP8O5AU,31,2,o,1
7239,1,BB,zmemth,1,Test,2426,0,A2T7NPOJP8O5AU,32,2,e,0
7240,0,GG,swod,0,Test,3211,1,A2T7NPOJP8O5AU,33,2,o,0
7241,1,GB,gloosf,0,Test,2169,0,A2T7NPOJP8O5AU,34,2,oo,0
7242,1,best,dellous,1,Catch,1880,1,A2T7NPOJP8O5AU,35,2,,0
7243,0,GG,striff,0,Test,1668,1,A2T7NPOJP8O5AU,36,2,i,0
7244,0,BG,vlack,1,Test,2330,1,A2T7NPOJP8O5AU,37,2,a,1
7245,0,GG,snass,0,Test,1890,1,A2T7NPOJP8O5AU,38,2,a,0
7292,0,GG,stip,0,Test,15223,1,A2UFY0XJPN8Q8V,3,2,i,1
7293,0,BG,shnun,1,Test,8508,1,A2UFY0XJPN8Q8V,4,2,u,0
7294,1,worst,psafzotrl,1,Catch,4094,0,A2UFY0XJPN8Q8V,5,2,,1
7295,1,GB,gloosf,0,Test,7891,0,A2UFY0XJPN8Q8V,6,2,oo,0
7296,1,best,spellion,1,Catch,2730,1,A2UFY0XJPN8Q8V,7,2,,0
7297,1,GB,frootp,0,Test,6104,1,A2UFY0XJPN8Q8V,8,2,oo,1
7298,1,worst,kflisgwevr,1,Catch,4411,0,A2UFY0XJPN8Q8V,9,2,,0
7299,1,worst,wlratlumr,1,Catch,2300,1,A2UFY0XJPN8Q8V,10,2,,0
7300,0,GG,striff,0,Test,2018,1,A2UFY0XJPN8Q8V,11,2,i,0
7301,1,BB,zmemth,1,Test,3921,0,A2UFY0XJPN8Q8V,12,2,e,0
7302,0,GG,grot,0,Test,2554,1,A2UFY0XJPN8Q8V,13,2,o,1
7303,1,worst,tmuhriz,1,Catch,4368,0,A2UFY0XJPN8Q8V,14,2,,0
7304,1,best,bressic,1,Catch,2818,1,A2UFY0XJPN8Q8V,15,2,,0
7305,1,worst,zgdokpevf,1,Catch,2778,0,A2UFY0XJPN8Q8V,16,2,,1
7306,1,GB,thrishk,0,Test,3983,1,A2UFY0XJPN8Q8V,17,2,i,0
7307,1,worst,lbafthrizk,1,Catch,10661,0,A2UFY0XJPN8Q8V,18,2,,0
7308,1,BB,thnoothk,1,Test,4677,0,A2UFY0XJPN8Q8V,19,2,oo,0
7309,0,BG,vle,1,Test,2861,1,A2UFY0XJPN8Q8V,20,2,e,1
7310,1,GB,krishp,0,Test,4827,1,A2UFY0XJPN8Q8V,21,2,i,0
7311,1,GB,blod,0,Test,3293,0,A2UFY0XJPN8Q8V,22,2,o,0
7312,0,BG,vlack,1,Test,2745,1,A2UFY0XJPN8Q8V,23,2,a,0
7313,0,BG,lrug,1,Test,2764,1,A2UFY0XJPN8Q8V,24,2,u,0
7314,0,GG,snass,0,Test,3208,1,A2UFY0XJPN8Q8V,25,2,a,1
7315,1,BB,shpefsh,1,Test,2025,0,A2UFY0XJPN8Q8V,26,2,e,0
7316,0,GG,swod,0,Test,2753,1,A2UFY0XJPN8Q8V,27,2,o,0
7317,1,BB,hrutp,1,Test,3574,0,A2UFY0XJPN8Q8V,28,2,u,1
7318,1,best,merly,1,Catch,3123,1,A2UFY0XJPN8Q8V,29,2,,0
7319,1,best,frotion,1,Catch,2482,1,A2UFY0XJPN8Q8V,30,2,,0
7320,1,best,dellous,1,Catch,2712,1,A2UFY0XJPN8Q8V,31,2,,0
7321,0,BG,zmaz,1,Test,2160,0,A2UFY0XJPN8Q8V,32,2,a,1
7322,1,BB,shlokp,1,Test,2829,0,A2UFY0XJPN8Q8V,33,2,o,1
7323,1,BB,dlooshp,1,Test,2014,0,A2UFY0XJPN8Q8V,34,2,oo,0
7324,1,GB,shrethk,0,Test,2845,1,A2UFY0XJPN8Q8V,35,2,e,1
7325,0,GG,drass,0,Test,1901,1,A2UFY0XJPN8Q8V,36,2,a,0
7326,0,BG,thmeg,1,Test,2246,0,A2UFY0XJPN8Q8V,37,2,e,1
7327,1,best,claffer,1,Catch,5933,1,A2UFY0XJPN8Q8V,38,2,,1
7381,0,BG,thlom,1,Test,6025,1,A2W2F1PFQPUZW9,3,3,o,0
7382,1,best,dellous,1,Catch,1546,1,A2W2F1PFQPUZW9,4,3,,0
7383,1,BB,zmad,1,Test,1586,0,A2W2F1PFQPUZW9,5,3,a,0
7384,1,BB,vlafsh,1,Test,4404,0,A2W2F1PFQPUZW9,6,3,a,1
7385,1,best,claffer,1,Catch,3636,1,A2W2F1PFQPUZW9,7,3,,1
7386,0,BG,shnell,1,Test,2938,1,A2W2F1PFQPUZW9,8,3,e,0
7387,1,GB,stithp,0,Test,3340,1,A2W2F1PFQPUZW9,9,3,i,0
7388,1,best,frotion,1,Catch,1847,1,A2W2F1PFQPUZW9,10,3,,0
7389,0,BG,thlizz,1,Test,3061,0,A2W2F1PFQPUZW9,11,3,i,1
7390,1,best,merly,1,Catch,2942,1,A2W2F1PFQPUZW9,12,3,,0
7391,1,best,spellion,1,Catch,2040,1,A2W2F1PFQPUZW9,13,3,,0
7392,0,BG,hroom,1,Test,3715,0,A2W2F1PFQPUZW9,14,3,oo,1
7393,1,BB,vlemth,1,Test,6888,1,A2W2F1PFQPUZW9,15,3,e,0
7394,0,GG,spood,0,Test,2712,1,A2W2F1PFQPUZW9,16,3,oo,1
7395,1,GB,gropk,0,Test,2237,0,A2W2F1PFQPUZW9,17,3,o,0
7396,1,worst,psafzotrl,1,Catch,3819,0,A2W2F1PFQPUZW9,18,3,,0
7397,0,BG,lrit,1,Test,5102,0,A2W2F1PFQPUZW9,19,3,i,1
7398,1,BB,thmepk,1,Test,1876,0,A2W2F1PFQPUZW9,20,3,e,1
7399,0,BG,dloo,1,Test,1870,1,A2W2F1PFQPUZW9,21,3,oo,0
7400,1,worst,wlratlumr,1,Catch,3021,0,A2W2F1PFQPUZW9,22,3,,1
7401,1,worst,lbafthrizk,1,Catch,2464,0,A2W2F1PFQPUZW9,23,3,,0
7402,1,worst,kflisgwevr,1,Catch,5720,0,A2W2F1PFQPUZW9,24,3,,0
7403,0,GG,splock,0,Test,1820,1,A2W2F1PFQPUZW9,25,3,o,1
7404,0,GG,smul,0,Test,1879,1,A2W2F1PFQPUZW9,26,3,u,0
7405,1,GB,strishk,0,Test,6409,1,A2W2F1PFQPUZW9,27,3,i,0
7406,1,worst,zgdokpevf,1,Catch,2432,0,A2W2F1PFQPUZW9,28,3,,1
7407,0,GG,kloop,0,Test,2153,1,A2W2F1PFQPUZW9,29,3,oo,0
7408,1,GB,drathf,0,Test,3630,0,A2W2F1PFQPUZW9,30,3,a,0
7409,1,BB,lrusf,1,Test,1781,0,A2W2F1PFQPUZW9,31,3,u,1
7410,0,GG,skreff,0,Test,1539,1,A2W2F1PFQPUZW9,32,3,e,1
7411,0,GG,plen,0,Test,1465,1,A2W2F1PFQPUZW9,33,3,e,1
7412,1,best,bressic,1,Catch,1587,1,A2W2F1PFQPUZW9,34,3,,0
7413,1,GB,swokp,0,Test,2941,0,A2W2F1PFQPUZW9,35,3,o,1
7414,1,GB,snathf,0,Test,2465,0,A2W2F1PFQPUZW9,36,3,a,1
7415,1,BB,shnuthp,1,Test,3636,0,A2W2F1PFQPUZW9,37,3,u,0
7416,1,worst,tmuhriz,1,Catch,1372,0,A2W2F1PFQPUZW9,38,3,,0
7498,0,BG,shlod,1,Test,11676,1,A2YI2GD7DLFD05,3,0,o,1
7499,1,BB,hrootp,1,Test,1981,0,A2YI2GD7DLFD05,4,0,oo,1
7500,1,worst,lbafthrizk,1,Catch,1248,0,A2YI2GD7DLFD05,5,0,,1
7501,1,BB,thlod,1,Test,2377,0,A2YI2GD7DLFD05,6,0,o,0
7502,1,GB,smutp,0,Test,3540,1,A2YI2GD7DLFD05,7,0,u,0
7503,0,GG,sle,0,Test,1688,1,A2YI2GD7DLFD05,8,0,e,0
7504,0,BG,shpiff,1,Test,4246,1,A2YI2GD7DLFD05,9,0,i,0
7505,1,worst,kflisgwevr,1,Catch,1199,1,A2YI2GD7DLFD05,10,0,,1
7506,1,best,bressic,1,Catch,7566,1,A2YI2GD7DLFD05,11,0,,0
7507,0,GG,brack,0,Test,2333,1,A2YI2GD7DLFD05,12,0,a,1
7508,0,GG,trug,0,Test,4848,1,A2YI2GD7DLFD05,13,0,u,0
7509,0,GG,fleg,0,Test,1936,1,A2YI2GD7DLFD05,14,0,e,0
7510,1,GB,spooshp,0,Test,1772,0,A2YI2GD7DLFD05,15,0,oo,1
7511,0,GG,skun,0,Test,2615,1,A2YI2GD7DLFD05,16,0,u,1
7512,1,GB,splokp,0,Test,4719,0,A2YI2GD7DLFD05,17,0,o,1
7513,1,worst,psafzotrl,1,Catch,1247,0,A2YI2GD7DLFD05,18,0,,1
7514,1,BB,thlishp,1,Test,2506,0,A2YI2GD7DLFD05,19,0,i,0
7515,1,best,frotion,1,Catch,1781,1,A2YI2GD7DLFD05,20,0,,0
7516,1,worst,zgdokpevf,1,Catch,1276,0,A2YI2GD7DLFD05,21,0,,0
7517,1,best,dellous,1,Catch,1613,1,A2YI2GD7DLFD05,22,0,,0
7518,0,BG,shtip,1,Test,2010,1,A2YI2GD7DLFD05,23,0,i,0
7519,1,GB,kloothk,0,Test,1898,0,A2YI2GD7DLFD05,24,0,oo,0
7520,1,best,spellion,1,Catch,3160,1,A2YI2GD7DLFD05,25,0,,1
7521,1,BB,shnethk,1,Test,1553,0,A2YI2GD7DLFD05,26,0,e,1
7522,1,worst,wlratlumr,1,Catch,1593,0,A2YI2GD7DLFD05,27,0,,0
7523,1,best,merly,1,Catch,1894,1,A2YI2GD7DLFD05,28,0,,1
7524,1,GB,skrefsh,0,Test,1524,0,A2YI2GD7DLFD05,29,0,e,1
7525,0,BG,thnass,1,Test,2851,0,A2YI2GD7DLFD05,30,0,a,0
7526,1,GB,plemth,0,Test,1774,1,A2YI2GD7DLFD05,31,0,e,1
7527,1,BB,dloosf,1,Test,1915,0,A2YI2GD7DLFD05,32,0,oo,1
7528,0,BG,shtot,1,Test,3815,1,A2YI2GD7DLFD05,33,0,o,1
7529,1,worst,tmuhriz,1,Catch,1245,0,A2YI2GD7DLFD05,34,0,,1
7530,1,best,claffer,1,Catch,2020,1,A2YI2GD7DLFD05,35,0,,0
7531,0,GG,praz,0,Test,2210,1,A2YI2GD7DLFD05,36,0,a,0
7532,0,BG,thmass,1,Test,3040,1,A2YI2GD7DLFD05,37,0,a,1
7533,1,BB,lrishk,1,Test,2024,1,A2YI2GD7DLFD05,38,0,i,0
7543,0,BG,thnoop,1,Test,13512,0,A2ZGRTUDSG8VKD,3,1,oo,1
7544,1,BB,shpishk,1,Test,3299,0,A2ZGRTUDSG8VKD,4,1,i,0
7545,1,best,merly,1,Catch,2945,1,A2ZGRTUDSG8VKD,5,1,,1
7546,1,worst,psafzotrl,1,Catch,2727,0,A2ZGRTUDSG8VKD,6,1,,0
7547,0,BG,dlood,1,Test,2388,0,A2ZGRTUDSG8VKD,7,1,oo,0
7548,0,BG,shlock,1,Test,3079,1,A2ZGRTUDSG8VKD,8,1,o,0
7549,1,BB,thnathf,1,Test,1357,0,A2ZGRTUDSG8VKD,9,1,a,0
7550,0,BG,shpeff,1,Test,3137,0,A2ZGRTUDSG8VKD,10,1,e,1
7551,1,best,frotion,1,Catch,2641,1,A2ZGRTUDSG8VKD,11,1,,1
7552,0,GG,froom,0,Test,1805,1,A2ZGRTUDSG8VKD,12,1,oo,0
7553,1,BB,thmathf,1,Test,1810,0,A2ZGRTUDSG8VKD,13,1,a,1
7554,1,BB,shlokp,1,Test,2907,0,A2ZGRTUDSG8VKD,14,1,o,1
7555,1,worst,zgdokpevf,1,Catch,1609,0,A2ZGRTUDSG8VKD,15,1,,1
7556,1,worst,tmuhriz,1,Catch,1820,0,A2ZGRTUDSG8VKD,16,1,,1
7557,1,worst,lbafthrizk,1,Catch,1907,1,A2ZGRTUDSG8VKD,17,1,,0
7558,1,best,bressic,1,Catch,3251,1,A2ZGRTUDSG8VKD,18,1,,1
7559,1,GB,flepk,0,Test,3236,1,A2ZGRTUDSG8VKD,19,1,e,0
7560,0,GG,blom,0,Test,2326,1,A2ZGRTUDSG8VKD,20,1,o,0
7561,1,best,dellous,1,Catch,1888,1,A2ZGRTUDSG8VKD,21,1,,0
7562,1,GB,prad,0,Test,1375,0,A2ZGRTUDSG8VKD,22,1,a,0
7563,1,best,claffer,1,Catch,1536,1,A2ZGRTUDSG8VKD,23,1,,0
7564,0,GG,gloo,0,Test,1475,1,A2ZGRTUDSG8VKD,24,1,oo,0
7565,0,BG,hrul,1,Test,1362,1,A2ZGRTUDSG8VKD,25,1,u,1
7566,0,GG,shrell,0,Test,3100,1,A2ZGRTUDSG8VKD,26,1,e,1
7567,1,GB,trusf,0,Test,3410,0,A2ZGRTUDSG8VKD,27,1,u,1
7568,0,GG,krizz,0,Test,6320,1,A2ZGRTUDSG8VKD,28,1,i,0
7569,0,GG,thrit,0,Test,1805,1,A2ZGRTUDSG8VKD,29,1,i,1
7570,1,BB,shtopk,1,Test,1709,0,A2ZGRTUDSG8VKD,30,1,o,1
7571,1,best,spellion,1,Catch,2189,1,A2ZGRTUDSG8VKD,31,1,,0
7572,1,GB,skuthp,0,Test,1413,0,A2ZGRTUDSG8VKD,32,1,u,1
7573,0,BG,zmen,1,Test,1718,0,A2ZGRTUDSG8VKD,33,1,e,1
7574,1,GB,brafsh,0,Test,1709,0,A2ZGRTUDSG8VKD,34,1,a,0
7575,1,BB,shtithp,1,Test,1849,0,A2ZGRTUDSG8VKD,35,1,i,1
7576,1,worst,wlratlumr,1,Catch,1523,0,A2ZGRTUDSG8VKD,36,1,,0
7577,1,GB,slemth,0,Test,1490,0,A2ZGRTUDSG8VKD,37,1,e,1
7578,1,worst,kflisgwevr,1,Catch,1388,0,A2ZGRTUDSG8VKD,38,1,,0
7743,1,worst,wlratlumr,1,Catch,4304,0,A31LPSIQ9A7RWV,3,3,,1
7744,1,best,frotion,1,Catch,2261,1,A31LPSIQ9A7RWV,4,3,,1
7745,0,GG,spood,0,Test,2076,1,A31LPSIQ9A7RWV,5,3,oo,0
7746,0,BG,hroom,1,Test,2227,0,A31LPSIQ9A7RWV,6,3,oo,1
7747,1,GB,gropk,0,Test,1918,0,A31LPSIQ9A7RWV,7,3,o,1
7748,1,BB,vlafsh,1,Test,1335,0,A31LPSIQ9A7RWV,8,3,a,1
7749,1,GB,drathf,0,Test,3005,0,A31LPSIQ9A7RWV,9,3,a,0
7750,1,worst,tmuhriz,1,Catch,1908,0,A31LPSIQ9A7RWV,10,3,,1
7751,1,BB,shnuthp,1,Test,1870,0,A31LPSIQ9A7RWV,11,3,u,0
7752,0,BG,lrit,1,Test,2101,0,A31LPSIQ9A7RWV,12,3,i,0
7753,0,GG,smul,0,Test,2051,1,A31LPSIQ9A7RWV,13,3,u,1
7754,1,BB,lrusf,1,Test,2039,0,A31LPSIQ9A7RWV,14,3,u,1
7755,0,BG,thlom,1,Test,1939,1,A31LPSIQ9A7RWV,15,3,o,0
7756,1,best,claffer,1,Catch,1764,1,A31LPSIQ9A7RWV,16,3,,1
7757,1,worst,kflisgwevr,1,Catch,1407,0,A31LPSIQ9A7RWV,17,3,,1
7758,0,BG,shnell,1,Test,1475,1,A31LPSIQ9A7RWV,18,3,e,0
7759,0,BG,thlizz,1,Test,2128,1,A31LPSIQ9A7RWV,19,3,i,1
7760,1,best,dellous,1,Catch,1547,1,A31LPSIQ9A7RWV,20,3,,0
7761,1,GB,snathf,0,Test,1831,0,A31LPSIQ9A7RWV,21,3,a,0
7762,1,GB,strishk,0,Test,1893,0,A31LPSIQ9A7RWV,22,3,i,0
7763,1,BB,zmad,1,Test,2003,0,A31LPSIQ9A7RWV,23,3,a,0
7764,1,best,bressic,1,Catch,1326,1,A31LPSIQ9A7RWV,24,3,,0
7765,0,GG,splock,0,Test,1334,1,A31LPSIQ9A7RWV,25,3,o,0
7766,1,GB,swokp,0,Test,1332,1,A31LPSIQ9A7RWV,26,3,o,0
7767,1,worst,zgdokpevf,1,Catch,1240,0,A31LPSIQ9A7RWV,27,3,,0
7768,1,BB,vlemth,1,Test,1835,1,A31LPSIQ9A7RWV,28,3,e,1
7769,0,BG,dloo,1,Test,1468,1,A31LPSIQ9A7RWV,29,3,oo,1
7770,1,best,spellion,1,Catch,1557,1,A31LPSIQ9A7RWV,30,3,,1
7771,0,GG,skreff,0,Test,1933,1,A31LPSIQ9A7RWV,31,3,e,0
7772,1,worst,lbafthrizk,1,Catch,1315,0,A31LPSIQ9A7RWV,32,3,,0
7773,1,BB,thmepk,1,Test,2511,1,A31LPSIQ9A7RWV,33,3,e,1
7774,1,GB,stithp,0,Test,2506,0,A31LPSIQ9A7RWV,34,3,i,0
7775,0,GG,kloop,0,Test,1374,1,A31LPSIQ9A7RWV,35,3,oo,0
7776,0,GG,plen,0,Test,1344,1,A31LPSIQ9A7RWV,36,3,e,1
7777,1,best,merly,1,Catch,1484,1,A31LPSIQ9A7RWV,37,3,,1
7778,1,worst,psafzotrl,1,Catch,1439,0,A31LPSIQ9A7RWV,38,3,,1
7788,0,GG,splock,0,Test,22246,1,A321IF5KK5N47D,3,3,o,1
7789,1,worst,wlratlumr,1,Catch,4169,0,A321IF5KK5N47D,4,3,,1
7790,1,GB,stithp,0,Test,2060,0,A321IF5KK5N47D,5,3,i,1
7791,0,BG,shnell,1,Test,2648,1,A321IF5KK5N47D,6,3,e,0
7792,0,BG,thlom,1,Test,2319,0,A321IF5KK5N47D,7,3,o,1
7793,1,best,bressic,1,Catch,1626,1,A321IF5KK5N47D,8,3,,0
7794,0,GG,plen,0,Test,1563,1,A321IF5KK5N47D,9,3,e,1
7795,1,GB,gropk,0,Test,1570,0,A321IF5KK5N47D,10,3,o,0
7796,0,BG,dloo,1,Test,1222,0,A321IF5KK5N47D,11,3,oo,0
7797,1,worst,zgdokpevf,1,Catch,818,0,A321IF5KK5N47D,12,3,,0
7798,1,GB,snathf,0,Test,852,1,A321IF5KK5N47D,13,3,a,1
7799,1,best,claffer,1,Catch,2517,1,A321IF5KK5N47D,14,3,,1
7800,1,BB,lrusf,1,Test,2007,0,A321IF5KK5N47D,15,3,u,1
7801,0,BG,lrit,1,Test,2401,0,A321IF5KK5N47D,16,3,i,0
7802,1,GB,swokp,0,Test,1304,0,A321IF5KK5N47D,17,3,o,0
7803,0,BG,hroom,1,Test,1741,1,A321IF5KK5N47D,18,3,oo,1
7804,1,GB,drathf,0,Test,1344,0,A321IF5KK5N47D,19,3,a,0
7805,1,worst,kflisgwevr,1,Catch,1057,0,A321IF5KK5N47D,20,3,,0
7806,1,best,merly,1,Catch,1692,1,A321IF5KK5N47D,21,3,,1
7807,0,GG,skreff,0,Test,2353,1,A321IF5KK5N47D,22,3,e,0
7808,1,BB,vlafsh,1,Test,1373,0,A321IF5KK5N47D,23,3,a,1
7809,1,best,dellous,1,Catch,1967,1,A321IF5KK5N47D,24,3,,0
7810,1,BB,zmad,1,Test,1161,0,A321IF5KK5N47D,25,3,a,0
7811,0,GG,kloop,0,Test,1448,1,A321IF5KK5N47D,26,3,oo,0
7812,1,best,frotion,1,Catch,1384,1,A321IF5KK5N47D,27,3,,0
7813,1,BB,vlemth,1,Test,3125,0,A321IF5KK5N47D,28,3,e,0
7814,1,worst,tmuhriz,1,Catch,917,1,A321IF5KK5N47D,29,3,,1
7815,1,BB,thmepk,1,Test,2225,0,A321IF5KK5N47D,30,3,e,0
7816,1,worst,psafzotrl,1,Catch,1149,0,A321IF5KK5N47D,31,3,,1
7817,0,BG,thlizz,1,Test,1792,0,A321IF5KK5N47D,32,3,i,0
7818,0,GG,spood,0,Test,1237,1,A321IF5KK5N47D,33,3,oo,0
7819,0,GG,smul,0,Test,1531,1,A321IF5KK5N47D,34,3,u,1
7820,1,GB,strishk,0,Test,2702,0,A321IF5KK5N47D,35,3,i,0
7821,1,best,spellion,1,Catch,1381,1,A321IF5KK5N47D,36,3,,0
7822,1,BB,shnuthp,1,Test,1320,0,A321IF5KK5N47D,37,3,u,1
7823,1,worst,lbafthrizk,1,Catch,1103,0,A321IF5KK5N47D,38,3,,1
7833,1,GB,drathf,0,Test,4762,0,A32L4PNSU74OZY,3,3,a,1
7834,1,BB,shnuthp,1,Test,1705,0,A32L4PNSU74OZY,4,3,u,1
7835,0,GG,kloop,0,Test,2810,1,A32L4PNSU74OZY,5,3,oo,0
7836,1,BB,lrusf,1,Test,2105,0,A32L4PNSU74OZY,6,3,u,1
7837,1,BB,vlafsh,1,Test,2691,0,A32L4PNSU74OZY,7,3,a,0
7838,0,GG,spood,0,Test,1795,1,A32L4PNSU74OZY,8,3,oo,1
7839,1,worst,psafzotrl,1,Catch,3666,0,A32L4PNSU74OZY,9,3,,0
7840,0,BG,lrit,1,Test,2214,0,A32L4PNSU74OZY,10,3,i,0
7841,1,best,claffer,1,Catch,1508,1,A32L4PNSU74OZY,11,3,,1
7842,1,GB,swokp,0,Test,1519,0,A32L4PNSU74OZY,12,3,o,0
7843,1,best,frotion,1,Catch,1718,1,A32L4PNSU74OZY,13,3,,1
7844,1,worst,lbafthrizk,1,Catch,1439,0,A32L4PNSU74OZY,14,3,,1
7845,1,BB,vlemth,1,Test,1568,0,A32L4PNSU74OZY,15,3,e,0
7846,0,GG,smul,0,Test,2463,0,A32L4PNSU74OZY,16,3,u,1
7847,0,BG,shnell,1,Test,2304,1,A32L4PNSU74OZY,17,3,e,1
7848,0,BG,dloo,1,Test,2066,0,A32L4PNSU74OZY,18,3,oo,0
7849,1,worst,kflisgwevr,1,Catch,1816,0,A32L4PNSU74OZY,19,3,,0
7850,1,worst,wlratlumr,1,Catch,2145,0,A32L4PNSU74OZY,20,3,,0
7851,1,BB,zmad,1,Test,1022,0,A32L4PNSU74OZY,21,3,a,0
7852,1,GB,snathf,0,Test,1787,0,A32L4PNSU74OZY,22,3,a,0
7853,1,best,merly,1,Catch,2832,1,A32L4PNSU74OZY,23,3,,1
7854,1,best,bressic,1,Catch,3731,1,A32L4PNSU74OZY,24,3,,0
7855,0,BG,hroom,1,Test,1836,0,A32L4PNSU74OZY,25,3,oo,0
7856,0,GG,skreff,0,Test,3651,0,A32L4PNSU74OZY,26,3,e,1
7857,1,worst,tmuhriz,1,Catch,1823,0,A32L4PNSU74OZY,27,3,,0
7858,0,GG,plen,0,Test,2025,1,A32L4PNSU74OZY,28,3,e,0
7859,1,GB,strishk,0,Test,3119,0,A32L4PNSU74OZY,29,3,i,1
7860,1,worst,zgdokpevf,1,Catch,1360,0,A32L4PNSU74OZY,30,3,,1
7861,1,best,spellion,1,Catch,1648,1,A32L4PNSU74OZY,31,3,,0
7862,1,GB,stithp,0,Test,1985,0,A32L4PNSU74OZY,32,3,i,0
7863,0,BG,thlizz,1,Test,2124,0,A32L4PNSU74OZY,33,3,i,0
7864,0,GG,splock,0,Test,1569,1,A32L4PNSU74OZY,34,3,o,1
7865,1,GB,gropk,0,Test,1688,0,A32L4PNSU74OZY,35,3,o,1
7866,1,BB,thmepk,1,Test,1818,0,A32L4PNSU74OZY,36,3,e,0
7867,0,BG,thlom,1,Test,7680,1,A32L4PNSU74OZY,37,3,o,1
7868,1,best,dellous,1,Catch,1449,1,A32L4PNSU74OZY,38,3,,0
7958,0,GG,splock,0,Test,16102,0,A33QI63NVR8CUO,3,3,o,0
7959,0,GG,kloop,0,Test,7437,0,A33QI63NVR8CUO,4,3,oo,0
7960,0,BG,lrit,1,Test,350889,0,A33QI63NVR8CUO,5,3,i,1
7961,1,worst,lbafthrizk,1,Catch,1536,0,A33QI63NVR8CUO,6,3,,1
7962,0,GG,skreff,0,Test,1095,0,A33QI63NVR8CUO,7,3,e,1
7963,1,GB,stithp,0,Test,1043,0,A33QI63NVR8CUO,8,3,i,1
7964,1,worst,wlratlumr,1,Catch,1069,0,A33QI63NVR8CUO,9,3,,1
7965,1,BB,zmad,1,Test,1081,1,A33QI63NVR8CUO,10,3,a,0
7966,1,worst,psafzotrl,1,Catch,1110,0,A33QI63NVR8CUO,11,3,,1
7967,1,GB,strishk,0,Test,1046,1,A33QI63NVR8CUO,12,3,i,0
7968,1,BB,vlafsh,1,Test,1001,1,A33QI63NVR8CUO,13,3,a,0
7969,1,worst,tmuhriz,1,Catch,1143,0,A33QI63NVR8CUO,14,3,,1
7970,0,GG,plen,0,Test,3169,1,A33QI63NVR8CUO,15,3,e,0
7971,1,worst,kflisgwevr,1,Catch,2173,0,A33QI63NVR8CUO,16,3,,1
7972,0,GG,smul,0,Test,2408,1,A33QI63NVR8CUO,17,3,u,1
7973,1,BB,shnuthp,1,Test,1387,0,A33QI63NVR8CUO,18,3,u,1
7974,1,best,bressic,1,Catch,4549,1,A33QI63NVR8CUO,19,3,,1
7975,1,GB,snathf,0,Test,6338,0,A33QI63NVR8CUO,20,3,a,0
7976,1,GB,drathf,0,Test,4566,1,A33QI63NVR8CUO,21,3,a,0
7977,1,BB,vlemth,1,Test,4911,0,A33QI63NVR8CUO,22,3,e,0
7978,0,BG,hroom,1,Test,3117,1,A33QI63NVR8CUO,23,3,oo,0
7979,1,GB,swokp,0,Test,4303,0,A33QI63NVR8CUO,24,3,o,1
7980,1,best,frotion,1,Catch,5231,0,A33QI63NVR8CUO,25,3,,1
7981,0,GG,spood,0,Test,3343,1,A33QI63NVR8CUO,26,3,oo,0
7982,0,BG,thlom,1,Test,4999,1,A33QI63NVR8CUO,27,3,o,1
7983,1,best,spellion,1,Catch,1539,1,A33QI63NVR8CUO,28,3,,0
7984,1,best,dellous,1,Catch,1460,1,A33QI63NVR8CUO,29,3,,0
7985,1,best,merly,1,Catch,1581,1,A33QI63NVR8CUO,30,3,,0
7986,1,worst,zgdokpevf,1,Catch,1898,0,A33QI63NVR8CUO,31,3,,0
7987,0,BG,shnell,1,Test,2483,1,A33QI63NVR8CUO,32,3,e,1
7988,1,BB,thmepk,1,Test,1851,0,A33QI63NVR8CUO,33,3,e,0
7989,1,GB,gropk,0,Test,2336,1,A33QI63NVR8CUO,34,3,o,0
7990,1,BB,lrusf,1,Test,1534,0,A33QI63NVR8CUO,35,3,u,0
7991,0,BG,thlizz,1,Test,2077,0,A33QI63NVR8CUO,36,3,i,1
7992,0,BG,dloo,1,Test,1516,1,A33QI63NVR8CUO,37,3,oo,0
7993,1,best,claffer,1,Catch,1979,0,A33QI63NVR8CUO,38,3,,1
8040,0,GG,snass,0,Test,7677,1,A35P7XUJJE79WT,3,2,a,0
8041,1,worst,lbafthrizk,1,Catch,6681,0,A35P7XUJJE79WT,4,2,,0
8042,0,BG,thmeg,1,Test,6372,1,A35P7XUJJE79WT,5,2,e,0
8043,1,worst,wlratlumr,1,Catch,4860,0,A35P7XUJJE79WT,6,2,,0
8044,1,BB,shpefsh,1,Test,40501,0,A35P7XUJJE79WT,7,2,e,1
8045,0,GG,grot,0,Test,4634,1,A35P7XUJJE79WT,8,2,o,0
8046,1,GB,shrethk,0,Test,24477,1,A35P7XUJJE79WT,9,2,e,1
8047,1,BB,hrutp,1,Test,3860,0,A35P7XUJJE79WT,10,2,u,1
8048,1,GB,blod,0,Test,11292,0,A35P7XUJJE79WT,11,2,o,1
8049,1,best,merly,1,Catch,2693,1,A35P7XUJJE79WT,12,2,,1
8050,0,GG,drass,0,Test,2157,1,A35P7XUJJE79WT,13,2,a,1
8051,1,best,frotion,1,Catch,2933,1,A35P7XUJJE79WT,14,2,,1
8052,1,best,dellous,1,Catch,1509,1,A35P7XUJJE79WT,15,2,,1
8053,1,best,spellion,1,Catch,2014,1,A35P7XUJJE79WT,16,2,,0
8054,1,worst,tmuhriz,1,Catch,1813,0,A35P7XUJJE79WT,17,2,,0
8055,0,BG,shnun,1,Test,8309,1,A35P7XUJJE79WT,18,2,u,1
8056,1,GB,gloosf,0,Test,3061,0,A35P7XUJJE79WT,19,2,oo,1
8057,1,best,claffer,1,Catch,1325,1,A35P7XUJJE79WT,20,2,,1
8058,1,BB,thnoothk,1,Test,14309,1,A35P7XUJJE79WT,21,2,oo,0
8059,1,BB,shlokp,1,Test,2381,0,A35P7XUJJE79WT,22,2,o,0
8060,0,GG,stip,0,Test,3581,1,A35P7XUJJE79WT,23,2,i,0
8061,0,GG,striff,0,Test,1996,1,A35P7XUJJE79WT,24,2,i,1
8062,0,BG,vlack,1,Test,1381,1,A35P7XUJJE79WT,25,2,a,1
8063,1,worst,zgdokpevf,1,Catch,1405,0,A35P7XUJJE79WT,26,2,,1
8064,0,GG,swod,0,Test,2580,1,A35P7XUJJE79WT,27,2,o,0
8065,1,best,bressic,1,Catch,2549,1,A35P7XUJJE79WT,28,2,,1
8066,1,BB,dlooshp,1,Test,4252,1,A35P7XUJJE79WT,29,2,oo,0
8067,1,worst,psafzotrl,1,Catch,8070,0,A35P7XUJJE79WT,30,2,,1
8068,1,GB,krishp,0,Test,1749,0,A35P7XUJJE79WT,31,2,i,0
8069,1,worst,kflisgwevr,1,Catch,1308,0,A35P7XUJJE79WT,32,2,,0
8070,1,GB,thrishk,0,Test,3558,0,A35P7XUJJE79WT,33,2,i,1
8071,0,BG,zmaz,1,Test,3701,0,A35P7XUJJE79WT,34,2,a,0
8072,0,BG,lrug,1,Test,1853,0,A35P7XUJJE79WT,35,2,u,0
8073,1,GB,frootp,0,Test,2053,0,A35P7XUJJE79WT,36,2,oo,0
8074,1,BB,zmemth,1,Test,1662,0,A35P7XUJJE79WT,37,2,e,0
8075,0,BG,vle,1,Test,2428,1,A35P7XUJJE79WT,38,2,e,0
8085,0,GG,praz,0,Test,15375,0,A36157W7TUZ6EW,3,0,a,0
8086,0,GG,trug,0,Test,9480,0,A36157W7TUZ6EW,4,0,u,0
8087,1,BB,hrootp,1,Test,5109,0,A36157W7TUZ6EW,5,0,oo,0
8088,0,BG,thmass,1,Test,6702,0,A36157W7TUZ6EW,6,0,a,1
8089,1,worst,lbafthrizk,1,Catch,4559,0,A36157W7TUZ6EW,7,0,,1
8090,1,best,dellous,1,Catch,3894,1,A36157W7TUZ6EW,8,0,,1
8091,1,worst,wlratlumr,1,Catch,5382,0,A36157W7TUZ6EW,9,0,,1
8092,1,GB,smutp,0,Test,4582,0,A36157W7TUZ6EW,10,0,u,1
8093,1,GB,splokp,0,Test,3820,0,A36157W7TUZ6EW,11,0,o,1
8094,1,worst,psafzotrl,1,Catch,5735,0,A36157W7TUZ6EW,12,0,,0
8095,1,GB,skrefsh,0,Test,4349,0,A36157W7TUZ6EW,13,0,e,0
8096,0,BG,thnass,1,Test,3870,0,A36157W7TUZ6EW,14,0,a,1
8097,0,GG,skun,0,Test,8638,1,A36157W7TUZ6EW,15,0,u,0
8098,1,worst,tmuhriz,1,Catch,4084,0,A36157W7TUZ6EW,16,0,,1
8099,1,BB,thlod,1,Test,3222,0,A36157W7TUZ6EW,17,0,o,0
8100,0,BG,shpiff,1,Test,7158,1,A36157W7TUZ6EW,18,0,i,1
8101,1,worst,zgdokpevf,1,Catch,3598,0,A36157W7TUZ6EW,19,0,,0
8102,1,BB,dloosf,1,Test,4078,0,A36157W7TUZ6EW,20,0,oo,0
